Time[ps]     GFree[eV]    Etot[eV]     Epot[eV]     Ekin[eV]    T[K]      -----stress [GPa] --------     ----- BOX [A] ------ 
0.0010         -72.4860     -82.054     -109.905       27.851   280.6     -0.466     -0.315     -0.576   19.715   19.715   19.715
0.0020         -72.4662     -82.040     -109.322       27.282   274.8     -0.572     -0.221     -0.543   19.715   19.715   19.715
0.0030         -72.4581     -82.039     -109.098       27.059   272.6     -0.649     -0.209     -0.453   19.715   19.715   19.715
0.0040         -72.4714     -82.061     -109.682       27.621   278.2     -0.641     -0.287     -0.358   19.715   19.715   19.715
0.0050         -72.4830     -82.085     -110.301       28.217   284.2     -0.534     -0.403     -0.299   19.715   19.715   19.715
0.0060         -72.4755     -82.094     -110.215       28.121   283.3     -0.378     -0.488     -0.308   19.715   19.715   19.715
0.0070         -72.4607     -82.101     -109.722       27.622   278.2     -0.263     -0.498     -0.393   19.715   19.715   19.715
0.0080         -72.4591     -82.122     -109.615       27.493   276.9     -0.264     -0.433     -0.530   19.715   19.715   19.715
0.0090         -72.4710     -82.160     -110.002       27.842   280.5     -0.397     -0.320     -0.668   19.715   19.715   19.715
0.0100         -72.4774     -82.197     -110.187       27.990   282.0     -0.602     -0.197     -0.758   19.715   19.715   19.715
0.0110         -72.4675     -82.221     -109.738       27.517   277.2     -0.767     -0.112     -0.778   19.715   19.715   19.715
0.0120         -72.4565     -82.245     -109.170       26.925   271.2     -0.810     -0.107     -0.739   19.715   19.715   19.715
0.0130         -72.4619     -82.285     -109.115       26.830   270.3     -0.716     -0.190     -0.670   19.715   19.715   19.715
0.0140         -72.4718     -82.331     -109.345       27.014   272.1     -0.517     -0.336     -0.592   19.715   19.715   19.715
0.0150         -72.4701     -82.365     -109.331       26.965   271.6     -0.300     -0.494     -0.510   19.715   19.715   19.715
0.0160         -72.4662     -82.398     -109.118       26.721   269.2     -0.178     -0.604     -0.440   19.715   19.715   19.715
0.0170         -72.4654     -82.433     -108.935       26.502   267.0     -0.210     -0.612     -0.407   19.716   19.716   19.716
0.0180         -72.4653     -82.468     -108.842       26.374   265.7     -0.374     -0.500     -0.425   19.716   19.716   19.716
0.0190         -72.4675     -82.503     -108.867       26.364   265.6     -0.588     -0.317     -0.493   19.716   19.716   19.716
0.0200         -72.4688     -82.537     -108.909       26.372   265.7     -0.741     -0.162     -0.585   19.716   19.716   19.716
0.0210         -72.4673     -82.566     -108.913       26.347   265.4     -0.757     -0.127     -0.652   19.716   19.716   19.716
0.0220         -72.4692     -82.598     -108.946       26.348   265.4     -0.634     -0.241     -0.661   19.716   19.716   19.716
0.0230         -72.4687     -82.625     -108.929       26.304   265.0     -0.432     -0.446     -0.605   19.716   19.716   19.716
0.0240         -72.4644     -82.648     -108.937       26.289   264.8     -0.259     -0.636     -0.517   19.716   19.716   19.716
0.0250         -72.4690     -82.678     -109.203       26.526   267.2     -0.201     -0.722     -0.453   19.716   19.716   19.716
0.0260         -72.4759     -82.710     -109.515       26.805   270.0     -0.271     -0.652     -0.448   19.716   19.716   19.716
0.0270         -72.4720     -82.731     -109.534       26.803   270.0     -0.415     -0.441     -0.499   19.716   19.716   19.716
0.0280         -72.4656     -82.750     -109.439       26.689   268.8     -0.550     -0.183     -0.579   19.716   19.716   19.716
0.0290         -72.4659     -82.776     -109.580       26.804   270.0     -0.599      0.008     -0.644   19.717   19.717   19.717
0.0300         -72.4715     -82.807     -109.949       27.141   273.4     -0.536      0.059     -0.661   19.717   19.717   19.717
0.0310         -72.4758     -82.839     -110.197       27.357   275.6     -0.393     -0.039     -0.619   19.717   19.717   19.717
0.0320         -72.4719     -82.865     -110.044       27.179   273.8     -0.236     -0.233     -0.537   19.717   19.717   19.717
0.0330         -72.4612     -82.884     -109.737       26.853   270.5     -0.136     -0.439     -0.451   19.717   19.717   19.717
0.0340         -72.4628     -82.916     -109.860       26.945   271.4     -0.161     -0.581     -0.398   19.717   19.717   19.717
0.0350         -72.4761     -82.961     -110.315       27.355   275.6     -0.315     -0.605     -0.383   19.717   19.717   19.717
0.0360         -72.4769     -82.995     -110.403       27.407   276.1     -0.520     -0.497     -0.391   19.717   19.717   19.717
0.0370         -72.4674     -83.021     -110.048       27.027   272.3     -0.678     -0.319     -0.406   19.717   19.717   19.717
0.0380         -72.4634     -83.053     -109.768       26.716   269.1     -0.721     -0.184     -0.423   19.718   19.718   19.718
0.0390         -72.4680     -83.093     -109.800       26.708   269.0     -0.635     -0.188     -0.431   19.718   19.718   19.718
0.0400         -72.4731     -83.133     -109.885       26.753   269.5     -0.468     -0.356     -0.416   19.718   19.718   19.718
0.0410         -72.4710     -83.165     -109.723       26.557   267.5     -0.292     -0.625     -0.383   19.718   19.718   19.718
0.0420         -72.4634     -83.191     -109.473       26.281   264.7     -0.185     -0.873     -0.359   19.718   19.718   19.718
0.0430         -72.4677     -83.228     -109.520       26.293   264.9     -0.201     -0.986     -0.364   19.718   19.718   19.718
0.0440         -72.4766     -83.267     -109.644       26.377   265.7     -0.326     -0.897     -0.383   19.718   19.718   19.718
0.0450         -72.4716     -83.291     -109.419       26.128   263.2     -0.477     -0.628     -0.387   19.719   19.719   19.719
0.0460         -72.4646     -83.311     -109.129       25.818   260.1     -0.566     -0.311     -0.367   19.719   19.719   19.719
0.0470         -72.4703     -83.340     -109.195       25.855   260.4     -0.540     -0.107     -0.343   19.719   19.719   19.719
0.0480         -72.4781     -83.368     -109.386       26.017   262.1     -0.407     -0.107     -0.351   19.719   19.719   19.719
0.0490         -72.4760     -83.385     -109.323       25.939   261.3     -0.235     -0.308     -0.418   19.719   19.719   19.719
0.0500         -72.4710     -83.395     -109.146       25.751   259.4     -0.106     -0.632     -0.546   19.719   19.719   19.719
0.0510         -72.4720     -83.409     -109.204       25.796   259.9     -0.078     -0.933     -0.699   19.720   19.720   19.720
0.0520         -72.4778     -83.425     -109.515       26.091   262.8     -0.172     -1.073     -0.813   19.720   19.720   19.720
0.0530         -72.4825     -83.438     -109.770       26.332   265.3     -0.354     -0.986     -0.827   19.720   19.720   19.720
0.0540         -72.4796     -83.442     -109.743       26.301   264.9     -0.541     -0.697     -0.727   19.720   19.720   19.720
0.0550         -72.4746     -83.442     -109.610       26.168   263.6     -0.648     -0.322     -0.550   19.720   19.720   19.720
0.0560         -72.4765     -83.448     -109.640       26.192   263.8     -0.636     -0.020     -0.365   19.721   19.721   19.721
0.0570         -72.4808     -83.453     -109.746       26.293   264.9     -0.519      0.077     -0.247   19.721   19.721   19.721
0.0580         -72.4774     -83.450     -109.755       26.305   265.0     -0.362     -0.073     -0.235   19.721   19.721   19.721
0.0590         -72.4751     -83.446     -109.827       26.381   265.7     -0.258     -0.404     -0.330   19.721   19.721   19.721
0.0600         -72.4794     -83.448     -110.101       26.653   268.5     -0.260     -0.776     -0.489   19.721   19.721   19.721
0.0610         -72.4820     -83.448     -110.377       26.929   271.3     -0.360     -1.027     -0.629   19.722   19.722   19.722
0.0620         -72.4803     -83.445     -110.499       27.054   272.5     -0.508     -1.043     -0.670   19.722   19.722   19.722
0.0630         -72.4785     -83.443     -110.535       27.092   272.9     -0.634     -0.808     -0.604   19.722   19.722   19.722
0.0640         -72.4790     -83.444     -110.592       27.148   273.5     -0.675     -0.428     -0.477   19.722   19.722   19.722
0.0650         -72.4820     -83.448     -110.640       27.192   273.9     -0.615     -0.084     -0.357   19.723   19.723   19.723
0.0660         -72.4828     -83.452     -110.444       26.992   271.9     -0.487      0.063     -0.301   19.723   19.723   19.723
0.0670         -72.4750     -83.447     -109.977       26.530   267.2     -0.352     -0.053     -0.337   19.723   19.723   19.723
0.0680         -72.4725     -83.446     -109.678       26.232   264.2     -0.280     -0.380     -0.457   19.723   19.723   19.723
0.0690         -72.4786     -83.453     -109.731       26.278   264.7     -0.302     -0.758     -0.606   19.724   19.724   19.724
0.0700         -72.4812     -83.455     -109.841       26.386   265.8     -0.401     -0.995     -0.706   19.724   19.724   19.724
0.0710         -72.4800     -83.452     -109.876       26.424   266.2     -0.520     -0.986     -0.711   19.724   19.724   19.724
0.0720         -72.4783     -83.447     -109.922       26.474   266.7     -0.596     -0.752     -0.620   19.724   19.724   19.724
0.0730         -72.4779     -83.443     -110.088       26.645   268.4     -0.596     -0.417     -0.461   19.725   19.725   19.725
0.0740         -72.4833     -83.444     -110.367       26.922   271.2     -0.533     -0.155     -0.289   19.725   19.725   19.725
0.0750         -72.4873     -83.444     -110.418       26.973   271.7     -0.452     -0.088     -0.165   19.725   19.725   19.725
0.0760         -72.4806     -83.434     -110.004       26.570   267.7     -0.391     -0.232     -0.141   19.725   19.725   19.725
0.0770         -72.4719     -83.421     -109.507       26.086   262.8     -0.388     -0.510     -0.235   19.726   19.726   19.726
0.0780         -72.4739     -83.416     -109.457       26.041   262.3     -0.466     -0.795     -0.402   19.726   19.726   19.726
0.0790         -72.4869     -83.421     -109.762       26.341   265.3     -0.605     -0.962     -0.545   19.726   19.726   19.726
0.0800         -72.4898     -83.415     -109.765       26.350   265.4     -0.736     -0.940     -0.582   19.727   19.727   19.727
0.0810         -72.4765     -83.391     -109.351       25.960   261.5     -0.789     -0.757     -0.500   19.727   19.727   19.727
0.0820         -72.4711     -83.372     -109.247       25.874   260.6     -0.740     -0.516     -0.357   19.727   19.727   19.727
0.0830         -72.4835     -83.369     -109.753       26.384   265.8     -0.612     -0.317     -0.234   19.728   19.728   19.728
0.0840         -72.4953     -83.363     -110.186       26.823   270.2     -0.452     -0.216     -0.193   19.728   19.728   19.728
0.0850         -72.4896     -83.339     -109.899       26.560   267.6     -0.324     -0.223     -0.257   19.728   19.728   19.728
0.0860         -72.4735     -83.304     -109.229       25.924   261.1     -0.288     -0.306     -0.403   19.728   19.728   19.728
0.0870         -72.4713     -83.281     -109.118       25.837   260.3     -0.368     -0.426     -0.566   19.729   19.729   19.729
0.0880         -72.4912     -83.278     -109.710       26.432   266.3     -0.523     -0.539     -0.674   19.729   19.729   19.729
0.0890         -72.5003     -83.263     -109.966       26.703   269.0     -0.655     -0.596     -0.673   19.729   19.729   19.729
0.0900         -72.4817     -83.220     -109.430       26.210   264.0     -0.681     -0.587     -0.572   19.730   19.730   19.730
0.0910         -72.4682     -83.180     -109.114       25.934   261.2     -0.609     -0.546     -0.446   19.730   19.730   19.730
0.0920         -72.4819     -83.165     -109.771       26.606   268.0     -0.495     -0.514     -0.371   19.730   19.730   19.730
0.0930         -72.5015     -83.155     -110.654       27.499   277.0     -0.394     -0.507     -0.370   19.731   19.731   19.731
0.0940         -72.4979     -83.123     -110.653       27.529   277.3     -0.345     -0.511     -0.420   19.731   19.731   19.731
0.0950         -72.4766     -83.077     -109.915       26.839   270.4     -0.362     -0.523     -0.478   19.732   19.732   19.732
0.0960         -72.4700     -83.045     -109.589       26.543   267.4     -0.434     -0.550     -0.507   19.732   19.732   19.732
0.0970         -72.4887     -83.039     -110.034       26.995   271.9     -0.523     -0.584     -0.486   19.732   19.732   19.732
0.0980         -72.4985     -83.024     -110.242       27.218   274.2     -0.579     -0.590     -0.409   19.733   19.733   19.733
0.0990         -72.4812     -82.983     -109.649       26.666   268.6     -0.591     -0.545     -0.311   19.733   19.733   19.733
0.1000         -72.4693     -82.948     -109.164       26.216   264.1     -0.589     -0.475     -0.263   19.733   19.733   19.733
0.1010         -72.4815     -82.935     -109.466       26.531   267.3     -0.607     -0.419     -0.302   19.734   19.734   19.734
0.1020         -72.4943     -82.921     -109.945       27.024   272.2     -0.659     -0.389     -0.411   19.734   19.734   19.734
0.1030         -72.4914     -82.893     -109.854       26.961   271.6     -0.734     -0.392     -0.541   19.735   19.735   19.735
0.1040         -72.4786     -82.856     -109.330       26.473   266.7     -0.797     -0.429     -0.633   19.735   19.735   19.735
0.1050         -72.4746     -82.827     -109.082       26.255   264.5     -0.807     -0.481     -0.656   19.735   19.735   19.735
0.1060         -72.4884     -82.815     -109.301       26.486   266.8     -0.737     -0.518     -0.624   19.736   19.736   19.736
0.1070         -72.4936     -82.792     -109.285       26.493   266.9     -0.594     -0.495     -0.565   19.736   19.736   19.736
0.1080         -72.4794     -82.749     -108.786       26.037   262.3     -0.443     -0.401     -0.520   19.737   19.737   19.737
0.1090         -72.4752     -82.714     -108.532       25.818   260.1     -0.355     -0.307     -0.531   19.737   19.737   19.737
0.1100         -72.4852     -82.690     -108.824       26.134   263.3     -0.368     -0.291     -0.597   19.737   19.737   19.737
0.1110         -72.4914     -82.660     -109.175       26.515   267.1     -0.485     -0.379     -0.670   19.738   19.738   19.738
0.1120         -72.4905     -82.623     -109.211       26.588   267.8     -0.657     -0.550     -0.698   19.738   19.738   19.738
0.1130         -72.4851     -82.581     -108.984       26.403   266.0     -0.798     -0.733     -0.653   19.739   19.739   19.739
0.1140         -72.4818     -82.540     -108.831       26.292   264.8     -0.846     -0.839     -0.548   19.739   19.739   19.739
0.1150         -72.4884     -82.507     -108.929       26.422   266.2     -0.788     -0.812     -0.437   19.740   19.740   19.740
0.1160         -72.4921     -82.470     -108.924       26.453   266.5     -0.653     -0.648     -0.376   19.740   19.740   19.740
0.1170         -72.4843     -82.421     -108.632       26.211   264.0     -0.512     -0.416     -0.400   19.741   19.741   19.741
0.1180         -72.4814     -82.374     -108.449       26.075   262.7     -0.444     -0.235     -0.507   19.741   19.741   19.741
0.1190         -72.4848     -82.331     -108.606       26.274   264.7     -0.494     -0.195     -0.647   19.742   19.742   19.742
0.1200         -72.4890     -82.288     -108.978       26.689   268.9     -0.657     -0.324     -0.749   19.742   19.742   19.742
0.1210         -72.4949     -82.247     -109.280       27.034   272.3     -0.868     -0.566     -0.758   19.743   19.743   19.743
0.1220         -72.4922     -82.198     -109.199       27.001   272.0     -1.034     -0.802     -0.667   19.743   19.743   19.743
0.1230         -72.4837     -82.144     -108.883       26.739   269.4     -1.087     -0.910     -0.522   19.744   19.744   19.744
0.1240         -72.4833     -82.098     -108.760       26.662   268.6     -1.008     -0.833     -0.400   19.744   19.744   19.744
0.1250         -72.4883     -82.057     -108.837       26.780   269.8     -0.825     -0.597     -0.361   19.745   19.745   19.745
0.1260         -72.4896     -82.012     -108.825       26.813   270.1     -0.604     -0.314     -0.422   19.745   19.745   19.745
0.1270         -72.4828     -81.958     -108.661       26.703   269.0     -0.423     -0.136     -0.557   19.746   19.746   19.746
0.1280         -72.4768     -81.905     -108.730       26.825   270.2     -0.367     -0.149     -0.716   19.746   19.746   19.746
0.1290         -72.4859     -81.867     -109.320       27.453   276.5     -0.485     -0.343     -0.835   19.747   19.747   19.747
0.1300         -72.4958     -81.833     -109.915       28.082   282.9     -0.717     -0.614     -0.856   19.747   19.747   19.747
0.1310         -72.4880     -81.785     -109.942       28.157   283.6     -0.945     -0.820     -0.765   19.748   19.748   19.748
0.1320         -72.4761     -81.738     -109.735       27.997   282.0     -1.060     -0.858     -0.608   19.748   19.748   19.748
0.1330         -72.4792     -81.710     -109.852       28.142   283.5     -0.998     -0.724     -0.462   19.749   19.749   19.749
0.1340         -72.4901     -81.694     -110.056       28.362   285.7     -0.786     -0.487     -0.387   19.749   19.749   19.749
0.1350         -72.4877     -81.669     -109.707       28.038   282.4     -0.523     -0.258     -0.407   19.750   19.750   19.750
0.1360         -72.4688     -81.631     -108.903       27.271   274.7     -0.334     -0.141     -0.509   19.751   19.751   19.751
0.1370         -72.4600     -81.606     -108.661       27.056   272.5     -0.331     -0.174     -0.652   19.751   19.751   19.751
0.1380         -72.4796     -81.610     -109.405       27.795   280.0     -0.533     -0.321     -0.775   19.752   19.752   19.752
0.1390         -72.4932     -81.612     -110.054       28.442   286.5     -0.819     -0.492     -0.811   19.752   19.752   19.752
0.1400         -72.4777     -81.592     -109.815       28.224   284.3     -1.036     -0.592     -0.730   19.753   19.753   19.753
0.1410         -72.4633     -81.577     -109.426       27.849   280.5     -1.093     -0.591     -0.571   19.754   19.754   19.754
0.1420         -72.4713     -81.588     -109.626       28.038   282.4     -0.970     -0.508     -0.410   19.754   19.754   19.754
0.1430         -72.4847     -81.609     -109.937       28.328   285.4     -0.719     -0.383     -0.310   19.755   19.755   19.755
0.1440         -72.4800     -81.615     -109.506       27.891   281.0     -0.445     -0.270     -0.312   19.755   19.755   19.755
0.1450         -72.4594     -81.609     -108.513       26.904   271.0     -0.265     -0.216     -0.422   19.756   19.756   19.756
0.1460         -72.4521     -81.614     -108.089       26.474   266.7     -0.256     -0.240     -0.615   19.757   19.757   19.757
0.1470         -72.4696     -81.645     -108.638       26.993   271.9     -0.400     -0.340     -0.827   19.757   19.757   19.757
0.1480         -72.4828     -81.674     -109.222       27.548   277.5     -0.589     -0.487     -0.970   19.758   19.758   19.758
0.1490         -72.4737     -81.684     -109.081       27.397   276.0     -0.700     -0.646     -0.979   19.759   19.759   19.759
0.1500         -72.4573     -81.688     -108.746       27.058   272.6     -0.670     -0.789     -0.854   19.759   19.759   19.759
0.1510         -72.4628     -81.715     -109.081       27.366   275.7     -0.523     -0.883     -0.657   19.760   19.760   19.760
0.1520         -72.4830     -81.759     -109.759       28.000   282.1     -0.330     -0.893     -0.465   19.761   19.761   19.761
0.1530         -72.4814     -81.785     -109.658       27.873   280.8     -0.180     -0.795     -0.335   19.761   19.761   19.761
0.1540         -72.4597     -81.793     -108.786       26.993   271.9     -0.157     -0.617     -0.308   19.762   19.762   19.762
0.1550         -72.4513     -81.814     -108.263       26.450   266.4     -0.279     -0.434     -0.398   19.763   19.763   19.763
0.1560         -72.4633     -81.854     -108.586       26.732   269.3     -0.487     -0.330     -0.557   19.763   19.763   19.763
0.1570         -72.4760     -81.896     -109.128       27.232   274.3     -0.676     -0.360     -0.697   19.764   19.764   19.764
0.1580         -72.4730     -81.925     -109.182       27.257   274.6     -0.746     -0.522     -0.756   19.765   19.765   19.765
0.1590         -72.4588     -81.944     -108.951       27.007   272.0     -0.672     -0.749     -0.717   19.765   19.765   19.765
0.1600         -72.4605     -81.980     -109.198       27.218   274.2     -0.520     -0.949     -0.607   19.766   19.766   19.766
0.1610         -72.4769     -82.033     -109.821       27.787   279.9     -0.383     -1.025     -0.470   19.767   19.767   19.767
0.1620         -72.4789     -82.075     -109.900       27.824   280.3     -0.320     -0.920     -0.352   19.767   19.767   19.767
0.1630         -72.4628     -82.102     -109.268       27.167   273.7     -0.347     -0.667     -0.291   19.768   19.768   19.768
0.1640         -72.4542     -82.135     -108.735       26.600   268.0     -0.433     -0.385     -0.312   19.769   19.769   19.769
0.1650         -72.4636     -82.184     -108.777       26.593   267.9     -0.525     -0.202     -0.409   19.770   19.770   19.770
0.1660         -72.4705     -82.232     -108.963       26.731   269.3     -0.571     -0.205     -0.529   19.770   19.770   19.770
0.1670         -72.4636     -82.265     -108.929       26.663   268.6     -0.548     -0.401     -0.620   19.771   19.771   19.771
0.1680         -72.4613     -82.304     -109.016       26.712   269.1     -0.484     -0.714     -0.658   19.772   19.772   19.772
0.1690         -72.4688     -82.353     -109.409       27.056   272.5     -0.420     -1.004     -0.638   19.773   19.773   19.773
0.1700         -72.4730     -82.401     -109.753       27.352   275.5     -0.385     -1.134     -0.582   19.773   19.773   19.773
0.1710         -72.4713     -82.445     -109.783       27.339   275.4     -0.390     -1.039     -0.524   19.774   19.774   19.774
0.1720         -72.4628     -82.483     -109.601       27.118   273.2     -0.402     -0.766     -0.488   19.775   19.775   19.775
0.1730         -72.4608     -82.528     -109.619       27.091   272.9     -0.390     -0.450     -0.493   19.776   19.776   19.776
0.1740         -72.4711     -82.586     -109.885       27.299   275.0     -0.352     -0.237     -0.549   19.776   19.776   19.776
0.1750         -72.4688     -82.633     -109.876       27.243   274.4     -0.287     -0.200     -0.632   19.777   19.777   19.777
0.1760         -72.4566     -82.672     -109.669       26.997   271.9     -0.229     -0.333     -0.706   19.778   19.778   19.778
0.1770         -72.4629     -82.730     -109.833       27.103   273.0     -0.236     -0.567     -0.735   19.779   19.779   19.779
0.1780         -72.4721     -82.793     -110.089       27.296   275.0     -0.332     -0.777     -0.681   19.779   19.779   19.779
0.1790         -72.4649     -82.842     -109.954       27.112   273.1     -0.492     -0.854     -0.549   19.780   19.780   19.780
0.1800         -72.4587     -82.892     -109.768       26.876   270.7     -0.646     -0.783     -0.392   19.781   19.781   19.781
0.1810         -72.4650     -82.955     -109.890       26.935   271.3     -0.700     -0.620     -0.275   19.782   19.782   19.782
0.1820         -72.4740     -83.020     -109.980       26.960   271.6     -0.599     -0.440     -0.254   19.783   19.783   19.783
0.1830         -72.4701     -83.073     -109.556       26.484   266.8     -0.373     -0.317     -0.346   19.783   19.783   19.783
0.1840         -72.4551     -83.110     -108.874       25.764   259.5     -0.127     -0.294     -0.505   19.784   19.784   19.784
0.1850         -72.4557     -83.159     -108.773       25.614   258.0      0.009     -0.382     -0.655   19.785   19.785   19.785
0.1860         -72.4740     -83.224     -109.267       26.043   262.3     -0.051     -0.545     -0.713   19.786   19.786   19.786
0.1870         -72.4784     -83.273     -109.415       26.142   263.3     -0.296     -0.702     -0.630   19.787   19.787   19.787
0.1880         -72.4638     -83.302     -109.011       25.709   259.0     -0.622     -0.784     -0.440   19.788   19.788   19.788
0.1890         -72.4589     -83.336     -108.902       25.566   257.5     -0.871     -0.766     -0.242   19.788   19.788   19.788
0.1900         -72.4743     -83.388     -109.476       26.088   262.8     -0.908     -0.648     -0.133   19.789   19.789   19.789
0.1910         -72.4887     -83.437     -109.915       26.479   266.7     -0.693     -0.465     -0.155   19.790   19.790   19.790
0.1920         -72.4749     -83.455     -109.472       26.016   262.1     -0.308     -0.284     -0.273   19.791   19.791   19.791
0.1930         -72.4555     -83.464     -108.910       25.446   256.3      0.068     -0.187     -0.421   19.792   19.792   19.792
0.1940         -72.4664     -83.499     -109.319       25.821   260.1      0.253     -0.230     -0.529   19.793   19.793   19.793
0.1950         -72.4899     -83.544     -110.148       26.604   268.0      0.172     -0.384     -0.548   19.794   19.794   19.794
0.1960         -72.4848     -83.562     -110.201       26.638   268.3     -0.124     -0.566     -0.482   19.794   19.794   19.794
0.1970         -72.4679     -83.568     -109.686       26.117   263.1     -0.496     -0.710     -0.378   19.795   19.795   19.795
0.1980         -72.4666     -83.588     -109.575       25.987   261.8     -0.760     -0.771     -0.287   19.796   19.796   19.796
0.1990         -72.4808     -83.621     -110.018       26.397   265.9     -0.765     -0.731     -0.247   19.797   19.797   19.797
0.2000         -72.4897     -83.648     -110.253       26.605   268.0     -0.483     -0.608     -0.274   19.798   19.798   19.798
0.2010         -72.4762     -83.651     -109.804       26.153   263.4     -0.030     -0.447     -0.336   19.799   19.799   19.799
0.2020         -72.4623     -83.650     -109.418       25.769   259.6      0.377     -0.315     -0.395   19.800   19.800   19.800
0.2030         -72.4774     -83.673     -109.839       26.166   263.6      0.529     -0.272     -0.430   19.800   19.800   19.800
0.2040         -72.4949     -83.699     -110.322       26.623   268.2      0.342     -0.326     -0.410   19.801   19.801   19.801
0.2050         -72.4847     -83.696     -109.958       26.262   264.5     -0.111     -0.446     -0.319   19.802   19.802   19.802
0.2060         -72.4680     -83.686     -109.330       25.644   258.3     -0.642     -0.592     -0.203   19.803   19.803   19.803
0.2070         -72.4738     -83.696     -109.408       25.712   259.0     -1.012     -0.706     -0.135   19.804   19.804   19.804
0.2080         -72.4904     -83.715     -109.966       26.251   264.4     -1.054     -0.714     -0.160   19.805   19.805   19.805
0.2090         -72.4928     -83.718     -110.118       26.401   265.9     -0.762     -0.585     -0.261   19.806   19.806   19.806
0.2100         -72.4798     -83.703     -109.724       26.021   262.1     -0.304     -0.354     -0.373   19.807   19.807   19.807
0.2110         -72.4714     -83.688     -109.525       25.836   260.3      0.069     -0.109     -0.441   19.807   19.807   19.807
0.2120         -72.4818     -83.689     -109.967       26.278   264.7      0.165      0.043     -0.449   19.808   19.808   19.808
0.2130         -72.4927     -83.689     -110.510       26.821   270.2     -0.045      0.019     -0.409   19.809   19.809   19.809
0.2140         -72.4880     -83.675     -110.574       26.899   271.0     -0.452     -0.179     -0.351   19.810   19.810   19.810
0.2150         -72.4805     -83.659     -110.376       26.717   269.1     -0.856     -0.476     -0.318   19.811   19.811   19.811
0.2160         -72.4804     -83.652     -110.343       26.691   268.9     -1.064     -0.742     -0.323   19.812   19.812   19.812
0.2170         -72.4843     -83.650     -110.510       26.860   270.6     -0.980     -0.850     -0.354   19.813   19.813   19.813
0.2180         -72.4887     -83.648     -110.646       26.998   272.0     -0.647     -0.751     -0.393   19.814   19.814   19.814
0.2190         -72.4870     -83.639     -110.514       26.875   270.7     -0.215     -0.483     -0.433   19.815   19.815   19.815
0.2200         -72.4794     -83.623     -110.237       26.614   268.1      0.120     -0.163     -0.480   19.816   19.816   19.816
0.2210         -72.4805     -83.615     -110.206       26.591   267.9      0.209      0.051     -0.543   19.817   19.817   19.817
0.2220         -72.4863     -83.610     -110.374       26.764   269.6      0.005      0.063     -0.606   19.817   19.817   19.817
0.2230         -72.4862     -83.601     -110.415       26.814   270.1     -0.415     -0.117     -0.644   19.818   19.818   19.818
0.2240         -72.4840     -83.591     -110.322       26.730   269.3     -0.884     -0.403     -0.645   19.819   19.819   19.819
0.2250         -72.4835     -83.585     -110.208       26.623   268.2     -1.209     -0.667     -0.607   19.820   19.820   19.820
0.2260         -72.4851     -83.581     -110.084       26.503   267.0     -1.263     -0.795     -0.536   19.821   19.821   19.821
0.2270         -72.4888     -83.578     -109.808       26.230   264.2     -1.037     -0.733     -0.441   19.822   19.822   19.822
0.2280         -72.4826     -83.562     -109.249       25.688   258.8     -0.641     -0.500     -0.346   19.823   19.823   19.823
0.2290         -72.4764     -83.540     -108.803       25.262   254.5     -0.262     -0.215     -0.282   19.824   19.824   19.824
0.2300         -72.4850     -83.528     -108.869       25.341   255.3     -0.068     -0.027     -0.271   19.825   19.825   19.825
0.2310         -72.4948     -83.512     -109.057       25.545   257.3     -0.123     -0.019     -0.317   19.826   19.826   19.826
0.2320         -72.4905     -83.479     -108.919       25.440   256.3     -0.389     -0.183     -0.402   19.827   19.827   19.827
0.2330         -72.4847     -83.442     -108.740       25.298   254.8     -0.748     -0.451     -0.499   19.828   19.828   19.828
0.2340         -72.4896     -83.413     -108.913       25.500   256.9     -1.042     -0.719     -0.574   19.829   19.829   19.829
0.2350         -72.4997     -83.386     -109.193       25.807   260.0     -1.137     -0.876     -0.585   19.830   19.830   19.830
0.2360         -72.4979     -83.345     -109.060       25.715   259.0     -0.982     -0.844     -0.517   19.831   19.831   19.831
0.2370         -72.4864     -83.289     -108.630       25.341   255.3     -0.635     -0.636     -0.398   19.832   19.832   19.832
0.2380         -72.4854     -83.239     -108.576       25.337   255.2     -0.248     -0.349     -0.276   19.833   19.833   19.833
0.2390         -72.4970     -83.194     -109.006       25.812   260.0      0.013     -0.106     -0.185   19.834   19.834   19.834
0.2400         -72.5011     -83.137     -109.327       26.190   263.8      0.046      0.006     -0.146   19.835   19.835   19.835
0.2410         -72.4949     -83.068     -109.297       26.229   264.2     -0.165     -0.042     -0.174   19.836   19.836   19.836
0.2420         -72.4913     -83.001     -109.288       26.287   264.8     -0.537     -0.224     -0.275   19.837   19.837   19.837
0.2430         -72.4983     -82.945     -109.505       26.561   267.6     -0.904     -0.468     -0.424   19.838   19.838   19.838
0.2440         -72.5031     -82.887     -109.568       26.682   268.8     -1.097     -0.667     -0.554   19.839   19.839   19.839
0.2450         -72.4942     -82.815     -109.213       26.397   265.9     -1.028     -0.726     -0.598   19.840   19.840   19.840
0.2460         -72.4850     -82.743     -108.949       26.206   264.0     -0.750     -0.627     -0.532   19.841   19.841   19.841
0.2470         -72.4933     -82.685     -109.249       26.565   267.6     -0.411     -0.417     -0.384   19.842   19.842   19.842
0.2480         -72.5044     -82.626     -109.662       27.036   272.3     -0.168     -0.164     -0.220   19.843   19.843   19.843
0.2490         -72.4976     -82.548     -109.610       27.062   272.6     -0.112      0.042     -0.109   19.844   19.844   19.844
0.2500         -72.4874     -82.467     -109.414       26.947   271.4     -0.242      0.106     -0.098   19.845   19.845   19.845
0.2510         -72.4906     -82.402     -109.639       27.237   274.4     -0.485      0.001     -0.187   19.846   19.846   19.846
0.2520         -72.5028     -82.347     -110.071       27.725   279.3     -0.728     -0.220     -0.334   19.847   19.847   19.847
0.2530         -72.5040     -82.285     -109.972       27.687   278.9     -0.867     -0.447     -0.461   19.848   19.848   19.848
0.2540         -72.4876     -82.210     -109.237       27.027   272.3     -0.852     -0.575     -0.515   19.849   19.849   19.849
0.2550         -72.4783     -82.144     -108.726       26.581   267.8     -0.713     -0.562     -0.492   19.850   19.850   19.850
0.2560         -72.4908     -82.099     -108.941       26.842   270.4     -0.533     -0.433     -0.411   19.851   19.851   19.851
0.2570         -72.4984     -82.048     -109.267       27.219   274.2     -0.390     -0.240     -0.292   19.852   19.852   19.852
0.2580         -72.4896     -81.980     -109.266       27.286   274.9     -0.332     -0.065     -0.176   19.853   19.853   19.853
0.2590         -72.4840     -81.916     -109.300       27.384   275.8     -0.380      0.011     -0.106   19.854   19.854   19.854
0.2600         -72.4876     -81.863     -109.594       27.731   279.3     -0.495     -0.030     -0.109   19.855   19.855   19.855
0.2610         -72.4901     -81.813     -109.943       28.130   283.4     -0.602     -0.150     -0.197   19.856   19.856   19.856
0.2620         -72.4922     -81.767     -110.091       28.324   285.3     -0.643     -0.286     -0.338   19.858   19.858   19.858
0.2630         -72.4870     -81.720     -109.920       28.201   284.1     -0.604     -0.377     -0.470   19.859   19.859   19.859
0.2640         -72.4796     -81.676     -109.656       27.980   281.9     -0.523     -0.403     -0.543   19.860   19.860   19.860
0.2650         -72.4809     -81.644     -109.599       27.955   281.6     -0.463     -0.366     -0.545   19.861   19.861   19.861
0.2660         -72.4812     -81.615     -109.680       28.064   282.7     -0.448     -0.277     -0.501   19.862   19.862   19.862
0.2670         -72.4806     -81.590     -109.809       28.219   284.3     -0.472     -0.176     -0.452   19.863   19.863   19.863
0.2680         -72.4824     -81.571     -109.939       28.368   285.8     -0.512     -0.111     -0.435   19.864   19.864   19.864
0.2690         -72.4772     -81.550     -109.948       28.398   286.1     -0.529     -0.104     -0.467   19.865   19.865   19.865
0.2700         -72.4735     -81.537     -110.024       28.487   287.0     -0.518     -0.150     -0.530   19.866   19.866   19.866
0.2710         -72.4805     -81.541     -110.266       28.725   289.4     -0.498     -0.209     -0.570   19.867   19.867   19.867
0.2720         -72.4811     -81.546     -110.249       28.703   289.1     -0.472     -0.243     -0.555   19.868   19.868   19.868
0.2730         -72.4720     -81.546     -109.853       28.306   285.1     -0.449     -0.258     -0.496   19.869   19.869   19.869
0.2740         -72.4677     -81.557     -109.479       27.923   281.3     -0.455     -0.272     -0.429   19.870   19.870   19.870
0.2750         -72.4690     -81.576     -109.365       27.789   279.9     -0.481     -0.293     -0.395   19.872   19.872   19.872
0.2760         -72.4737     -81.602     -109.410       27.808   280.1     -0.516     -0.322     -0.407   19.873   19.873   19.873
0.2770         -72.4729     -81.627     -109.322       27.696   279.0     -0.550     -0.346     -0.457   19.874   19.874   19.874
0.2780         -72.4629     -81.645     -109.127       27.482   276.8     -0.568     -0.352     -0.536   19.875   19.875   19.875
0.2790         -72.4641     -81.677     -109.271       27.594   278.0     -0.574     -0.336     -0.618   19.876   19.876   19.876
0.2800         -72.4766     -81.724     -109.610       27.886   280.9     -0.559     -0.301     -0.656   19.877   19.877   19.877
0.2810         -72.4752     -81.760     -109.434       27.674   278.8     -0.502     -0.264     -0.617   19.878   19.878   19.878
0.2820         -72.4593     -81.783     -108.801       27.018   272.2     -0.416     -0.260     -0.511   19.879   19.879   19.879
0.2830         -72.4543     -81.817     -108.564       26.748   269.4     -0.347     -0.301     -0.403   19.880   19.880   19.880
0.2840         -72.4686     -81.869     -109.015       27.146   273.5     -0.332     -0.357     -0.357   19.882   19.882   19.882
0.2850         -72.4817     -81.923     -109.372       27.448   276.5     -0.383     -0.386     -0.393   19.883   19.883   19.883
0.2860         -72.4699     -81.955     -108.943       26.989   271.9     -0.470     -0.377     -0.498   19.884   19.884   19.884
0.2870         -72.4521     -81.980     -108.359       26.380   265.7     -0.565     -0.369     -0.636   19.885   19.885   19.885
0.2880         -72.4581     -82.028     -108.612       26.584   267.8     -0.643     -0.391     -0.744   19.886   19.886   19.886
0.2890         -72.4772     -82.090     -109.378       27.287   274.9     -0.661     -0.429     -0.756   19.887   19.887   19.887
0.2900         -72.4779     -82.137     -109.571       27.434   276.4     -0.592     -0.445     -0.648   19.888   19.888   19.888
0.2910         -72.4618     -82.167     -109.056       26.888   270.9     -0.462     -0.410     -0.471   19.890   19.890   19.890
0.2920         -72.4526     -82.202     -108.777       26.574   267.7     -0.332     -0.317     -0.329   19.891   19.891   19.891
0.2930         -72.4670     -82.260     -109.264       27.004   272.0     -0.262     -0.192     -0.292   19.892   19.892   19.892
0.2940         -72.4820     -82.320     -109.741       27.421   276.2     -0.283     -0.078     -0.354   19.893   19.893   19.893
0.2950         -72.4840     -82.370     -109.426       27.056   272.5     -0.354     -0.014     -0.448   19.894   19.894   19.894
0.2960         -72.4669     -82.400     -108.879       26.479   266.7     -0.494     -0.096     -0.573   19.895   19.895   19.895
0.2970         -72.4730     -82.453     -109.034       26.580   267.8     -0.618     -0.292     -0.659   19.897   19.897   19.897
0.2980         -72.4891     -82.518     -109.610       27.092   272.9     -0.659     -0.515     -0.658   19.898   19.898   19.898
0.2990         -72.4903     -82.570     -109.740       27.170   273.7     -0.586     -0.672     -0.558   19.899   19.899   19.899
0.3000         -72.4786     -82.609     -109.294       26.685   268.8     -0.438     -0.704     -0.402   19.900   19.900   19.900
0.3010         -72.4705     -82.649     -108.915       26.265   264.6     -0.298     -0.603     -0.263   19.901   19.901   19.901
0.3020         -72.4784     -82.703     -109.064       26.361   265.5     -0.233     -0.423     -0.198   19.903   19.903   19.903
0.3030         -72.4897     -82.758     -109.326       26.568   267.6     -0.257     -0.246     -0.224   19.904   19.904   19.904
0.3040         -72.4852     -82.797     -109.097       26.300   264.9     -0.348     -0.143     -0.317   19.905   19.905   19.905
0.3050         -72.4731     -82.826     -108.648       25.822   260.1     -0.469     -0.159     -0.439   19.906   19.906   19.906
0.3060         -72.4757     -82.867     -108.687       25.820   260.1     -0.579     -0.293     -0.535   19.907   19.907   19.907
0.3070         -72.4900     -82.919     -109.147       26.228   264.2     -0.633     -0.493     -0.547   19.909   19.909   19.909
0.3080         -72.4946     -82.960     -109.334       26.374   265.7     -0.606     -0.678     -0.457   19.910   19.910   19.910
0.3090         -72.4865     -82.987     -109.012       26.024   262.2     -0.520     -0.772     -0.312   19.911   19.911   19.911
0.3100         -72.4783     -83.011     -108.678       25.667   258.6     -0.425     -0.731     -0.192   19.912   19.912   19.912
0.3110         -72.4816     -83.041     -108.851       25.810   260.0     -0.362     -0.565     -0.159   19.914   19.914   19.914
0.3120         -72.4962     -83.080     -109.353       26.273   264.7     -0.343     -0.344     -0.224   19.915   19.915   19.915
0.3130         -72.4993     -83.106     -109.435       26.329   265.2     -0.354     -0.157     -0.343   19.916   19.916   19.916
0.3140         -72.4846     -83.112     -108.958       25.846   260.4     -0.374     -0.074     -0.459   19.917   19.917   19.917
0.3150         -72.4773     -83.122     -108.766       25.643   258.3     -0.392     -0.126     -0.538   19.918   19.918   19.918
0.3160         -72.4909     -83.151     -109.306       26.156   263.5     -0.399     -0.274     -0.554   19.920   19.920   19.920
0.3170         -72.5037     -83.178     -109.903       26.725   269.2     -0.390     -0.427     -0.497   19.921   19.921   19.921
0.3180         -72.4996     -83.189     -109.836       26.648   268.4     -0.382     -0.500     -0.393   19.922   19.922   19.922
0.3190         -72.4841     -83.187     -109.348       26.162   263.5     -0.400     -0.468     -0.288   19.923   19.923   19.923
0.3200         -72.4801     -83.194     -109.287       26.093   262.8     -0.443     -0.361     -0.214   19.925   19.925   19.925
0.3210         -72.4959     -83.218     -109.847       26.629   268.2     -0.467     -0.251     -0.196   19.926   19.926   19.926
0.3220         -72.5062     -83.237     -110.177       26.940   271.4     -0.416     -0.198     -0.237   19.927   19.927   19.927
0.3230         -72.4945     -83.234     -109.752       26.518   267.1     -0.298     -0.220     -0.312   19.928   19.928   19.928
0.3240         -72.4800     -83.227     -109.233       26.006   262.0     -0.178     -0.305     -0.377   19.930   19.930   19.930
0.3250         -72.4847     -83.237     -109.472       26.235   264.3     -0.119     -0.426     -0.392   19.931   19.931   19.931
0.3260         -72.5066     -83.263     -110.187       26.924   271.2     -0.146     -0.531     -0.346   19.932   19.932   19.932
0.3270         -72.5084     -83.270     -110.192       26.922   271.2     -0.230     -0.561     -0.253   19.933   19.933   19.933
0.3280         -72.4858     -83.253     -109.380       26.127   263.2     -0.323     -0.495     -0.160   19.935   19.935   19.935
0.3290         -72.4800     -83.249     -109.004       25.755   259.4     -0.389     -0.363     -0.131   19.936   19.936   19.936
0.3300         -72.4975     -83.266     -109.486       26.220   264.1     -0.383     -0.219     -0.196   19.937   19.937   19.937
0.3310         -72.5084     -83.274     -109.920       26.646   268.4     -0.281     -0.126     -0.329   19.939   19.939   19.939
0.3320         -72.5310     -83.294     -109.682       26.388   265.8     -0.126     -0.109     -0.466   19.940   19.940   19.940
0.3330         -72.5140     -83.272     -109.093       25.820   260.1     -0.009     -0.161     -0.567   19.941   19.941   19.941
0.3340         -72.5150     -83.266     -109.141       25.875   260.6      0.021     -0.247     -0.600   19.942   19.942   19.942
0.3350         -72.5386     -83.280     -109.809       26.529   267.2     -0.057     -0.323     -0.571   19.944   19.944   19.944
0.3360         -72.5396     -83.271     -109.898       26.627   268.2     -0.194     -0.333     -0.484   19.945   19.945   19.945
0.3370         -72.5187     -83.240     -109.310       26.070   262.6     -0.334     -0.257     -0.366   19.946   19.946   19.946
0.3380         -72.5171     -83.225     -109.175       25.950   261.4     -0.433     -0.130     -0.270   19.947   19.947   19.947
0.3390         -72.5320     -83.224     -109.638       26.414   266.1     -0.427     -0.010     -0.226   19.949   19.949   19.949
0.3400         -72.5363     -83.211     -109.933       26.722   269.2     -0.298      0.051     -0.242   19.950   19.950   19.950
0.3410         -72.5313     -83.187     -109.757       26.569   267.6     -0.114      0.030     -0.302   19.951   19.951   19.951
0.3420         -72.5207     -83.158     -109.445       26.287   264.8      0.043     -0.066     -0.370   19.953   19.953   19.953
0.3430         -72.5224     -83.139     -109.608       26.469   266.6      0.090     -0.218     -0.405   19.954   19.954   19.954
0.3440         -72.5394     -83.136     -110.155       27.020   272.2     -0.014     -0.404     -0.379   19.955   19.955   19.955
0.3450         -72.5392     -83.116     -110.222       27.105   273.0     -0.218     -0.556     -0.282   19.956   19.956   19.956
0.3460         -72.5235     -83.083     -109.788       26.705   269.0     -0.428     -0.594     -0.148   19.958   19.958   19.958
0.3470         -72.5223     -83.065     -109.613       26.549   267.4     -0.548     -0.488     -0.044   19.959   19.959   19.959
0.3480         -72.5288     -83.053     -109.800       26.748   269.4     -0.494     -0.281     -0.024   19.960   19.960   19.960
0.3490         -72.5325     -83.037     -109.971       26.934   271.3     -0.283     -0.071     -0.105   19.962   19.962   19.962
0.3500         -72.5335     -83.017     -109.843       26.825   270.2     -0.026      0.045     -0.252   19.963   19.963   19.963
0.3510         -72.5224     -82.986     -109.461       26.475   266.7      0.148      0.032     -0.396   19.964   19.964   19.964
0.3520         -72.5210     -82.963     -109.444       26.481   266.8      0.123     -0.095     -0.480   19.965   19.965   19.965
0.3530         -72.5368     -82.958     -109.848       26.890   270.9     -0.110     -0.274     -0.488   19.967   19.967   19.967
0.3540         -72.5358     -82.938     -109.892       26.954   271.5     -0.433     -0.396     -0.426   19.968   19.968   19.968
0.3550         -72.5247     -82.909     -109.573       26.663   268.6     -0.695     -0.383     -0.332   19.969   19.969   19.969
0.3560         -72.5247     -82.891     -109.477       26.586   267.8     -0.767     -0.243     -0.250   19.971   19.971   19.971
0.3570         -72.5285     -82.876     -109.674       26.798   269.9     -0.598     -0.048     -0.214   19.972   19.972   19.972
0.3580         -72.5334     -82.860     -109.935       27.075   272.7     -0.279      0.108     -0.239   19.973   19.973   19.973
0.3590         -72.5342     -82.840     -109.927       27.087   272.9      0.023      0.159     -0.294   19.974   19.974   19.974
0.3600         -72.5204     -82.805     -109.681       26.876   270.7      0.151      0.100     -0.332   19.976   19.976   19.976
0.3610         -72.5223     -82.787     -109.869       27.082   272.8      0.018     -0.059     -0.339   19.977   19.977   19.977
0.3620         -72.5385     -82.786     -110.342       27.556   277.6     -0.315     -0.267     -0.316   19.978   19.978   19.978
0.3630         -72.5140     -82.749     -110.262       27.513   277.2     -0.659     -0.426     -0.250   19.980   19.980   19.980
0.3640         -72.5013     -82.726     -109.876       27.150   273.5     -0.842     -0.476     -0.171   19.981   19.981   19.981
0.3650         -72.5030     -82.719     -109.816       27.097   273.0     -0.762     -0.398     -0.095   19.982   19.982   19.982
0.3660         -72.5069     -82.714     -110.055       27.341   275.4     -0.447     -0.225     -0.036   19.984   19.984   19.984
0.3670         -72.5111     -82.710     -110.286       27.577   277.8     -0.058     -0.043     -0.006   19.985   19.985   19.985
0.3680         -72.5143     -82.705     -110.234       27.529   277.3      0.206      0.062     -0.001   19.986   19.986   19.986
0.3690         -72.5053     -82.690     -109.976       27.286   274.9      0.213      0.049     -0.019   19.987   19.987   19.987
0.3700         -72.5068     -82.688     -109.946       27.259   274.6     -0.044     -0.079     -0.070   19.989   19.989   19.989
0.3710         -72.5150     -82.696     -110.030       27.334   275.3     -0.425     -0.262     -0.147   19.990   19.990   19.990
0.3720         -72.5113     -82.696     -109.803       27.108   273.1     -0.714     -0.404     -0.223   19.991   19.991   19.991
0.3730         -72.5051     -82.695     -109.426       26.731   269.3     -0.773     -0.416     -0.275   19.993   19.993   19.993
0.3740         -72.5053     -82.700     -109.242       26.542   267.4     -0.590     -0.266     -0.291   19.994   19.994   19.994
0.3750         -72.5079     -82.705     -109.254       26.549   267.4     -0.264     -0.016     -0.269   19.995   19.995   19.995
0.3760         -72.5098     -82.706     -109.339       26.633   268.3      0.026      0.218     -0.224   19.997   19.997   19.997
0.3770         -72.5088     -82.703     -109.382       26.678   268.7      0.120      0.336     -0.177   19.998   19.998   19.998
0.3780         -72.5038     -82.696     -109.436       26.740   269.4     -0.020      0.288     -0.158   19.999   19.999   19.999
0.3790         -72.5061     -82.697     -109.704       27.007   272.1     -0.322      0.085     -0.187   20.000   20.000   20.000
0.3800         -72.5128     -82.706     -110.054       27.348   275.5     -0.629     -0.196     -0.239   20.002   20.002   20.002
0.3810         -72.5117     -82.710     -110.145       27.435   276.4     -0.774     -0.423     -0.274   20.003   20.003   20.003
0.3820         -72.5075     -82.715     -110.009       27.294   274.9     -0.694     -0.481     -0.273   20.004   20.004   20.004
0.3830         -72.5067     -82.723     -109.823       27.100   273.0     -0.441     -0.349     -0.231   20.006   20.006   20.006
0.3840         -72.5033     -82.728     -109.668       26.940   271.4     -0.129     -0.105     -0.157   20.007   20.007   20.007
0.3850         -72.5034     -82.735     -109.740       27.005   272.0      0.086      0.120     -0.078   20.008   20.008   20.008
0.3860         -72.5092     -82.747     -110.014       27.267   274.7      0.100      0.204     -0.029   20.009   20.009   20.009
0.3870         -72.5095     -82.756     -110.148       27.392   275.9     -0.079      0.097     -0.027   20.011   20.011   20.011
0.3880         -72.5025     -82.762     -110.114       27.352   275.5     -0.364     -0.145     -0.082   20.012   20.012   20.012
0.3890         -72.5017     -82.777     -110.247       27.470   276.7     -0.624     -0.402     -0.187   20.013   20.013   20.013
0.3900         -72.5091     -82.805     -110.556       27.751   279.5     -0.728     -0.545     -0.312   20.015   20.015   20.015
0.3910         -72.5134     -82.834     -110.627       27.792   280.0     -0.631     -0.498     -0.415   20.016   20.016   20.016
0.3920         -72.5071     -82.855     -110.153       27.298   275.0     -0.372     -0.282     -0.470   20.017   20.017   20.017
0.3930         -72.4949     -82.869     -109.494       26.625   268.2     -0.061     -0.005     -0.477   20.019   20.019   20.019
0.3940         -72.4961     -82.893     -109.359       26.467   266.6      0.147      0.197     -0.460   20.020   20.020   20.020
0.3950         -72.5102     -82.928     -109.683       26.755   269.5      0.150      0.246     -0.437   20.021   20.021   20.021
0.3960         -72.5108     -82.951     -109.730       26.780   269.8     -0.038      0.159     -0.412   20.023   20.023   20.023
0.3970         -72.4982     -82.961     -109.471       26.510   267.0     -0.325      0.007     -0.385   20.024   20.024   20.024
0.3980         -72.4967     -82.982     -109.564       26.581   267.8     -0.586     -0.127     -0.362   20.025   20.025   20.025
0.3990         -72.5078     -83.018     -110.115       27.097   273.0     -0.701     -0.170     -0.341   20.026   20.026   20.026
0.4000         -72.5172     -83.053     -110.482       27.429   276.3     -0.624     -0.111     -0.319   20.028   20.028   20.028
0.4010         -72.5099     -83.073     -110.138       27.066   272.6     -0.398      0.010     -0.296   20.029   20.029   20.029
0.4020         -72.4937     -83.082     -109.510       26.428   266.2     -0.134      0.115     -0.274   20.030   20.030   20.030
0.4030         -72.4961     -83.107     -109.472       26.365   265.6      0.037      0.127     -0.251   20.032   20.032   20.032
0.4040         -67.5626     -78.195     -104.987       26.792   269.9      1.874      1.913      1.631   20.033   20.033   20.033
0.4050         -67.5635     -78.201     -105.122       26.921   271.2      1.753      1.785      1.691   20.034   20.034   20.034
0.4060         -67.5531     -78.197     -104.897       26.700   269.0      1.579      1.680      1.766   20.035   20.035   20.035
0.4070         -67.5498     -78.200     -104.880       26.680   268.8      1.441      1.660      1.828   20.037   20.037   20.037
0.4080         -67.5571     -78.215     -105.316       27.101   273.0      1.402      1.735      1.846   20.038   20.038   20.038
0.4090         -67.5591     -78.226     -105.807       27.581   277.8      1.462      1.853      1.804   20.039   20.039   20.039
0.4100         -67.5569     -78.236     -105.812       27.576   277.8      1.595      1.974      1.720   20.040   20.040   20.040
0.4110         -67.5452     -78.238     -105.426       27.189   273.9      1.716      2.042      1.622   20.041   20.041   20.041
0.4120         -67.5440     -78.252     -105.233       26.981   271.8      1.754      2.021      1.550   20.042   20.042   20.042
0.4130         -67.5501     -78.275     -105.312       27.038   272.4      1.692      1.939      1.529   20.043   20.043   20.043
0.4140         -67.5506     -78.294     -105.369       27.075   272.7      1.579      1.855      1.564   20.044   20.044   20.044
0.4150         -67.5495     -78.313     -105.345       27.032   272.3      1.487      1.808      1.633   20.045   20.045   20.045
0.4160         -67.5480     -78.332     -105.302       26.970   271.7      1.467      1.818      1.692   20.046   20.046   20.046
0.4170         -67.5478     -78.354     -105.335       26.981   271.8      1.522      1.860      1.701   20.047   20.047   20.047
0.4180         -67.5528     -78.382     -105.449       27.067   272.7      1.600      1.885      1.657   20.048   20.048   20.048
0.4190         -67.5541     -78.408     -105.403       26.995   271.9      1.639      1.874      1.593   20.049   20.049   20.049
0.4200         -67.5500     -78.429     -105.124       26.695   268.9      1.614      1.826      1.547   20.050   20.050   20.050
0.4210         -67.5484     -78.452     -104.796       26.344   265.4      1.551      1.752      1.541   20.051   20.051   20.051
0.4220         -67.5491     -78.476     -104.560       26.084   262.8      1.507      1.680      1.573   20.051   20.051   20.051
0.4230         -67.5507     -78.499     -104.481       25.983   261.7      1.523      1.633      1.632   20.052   20.052   20.052
0.4240         -67.5515     -78.518     -104.554       26.036   262.3      1.597      1.618      1.702   20.053   20.053   20.053
0.4250         -67.5512     -78.535     -104.803       26.268   264.6      1.681      1.627      1.753   20.054   20.054   20.054
0.4260         -67.5581     -78.558     -105.215       26.656   268.5      1.705      1.638      1.754   20.054   20.054   20.054
0.4270         -67.5611     -78.578     -105.461       26.883   270.8      1.633      1.644      1.709   20.055   20.055   20.055
0.4280         -67.5537     -78.589     -105.435       26.846   270.4      1.486      1.645      1.645   20.056   20.056   20.056
0.4290         -67.5530     -78.607     -105.513       26.906   271.0      1.329      1.637      1.583   20.056   20.056   20.056
0.4300         -67.5613     -78.636     -105.757       27.121   273.2      1.247      1.634      1.537   20.057   20.057   20.057
0.4310         -67.5623     -78.659     -105.768       27.109   273.1      1.302      1.656      1.516   20.057   20.057   20.057
0.4320         -67.5545     -78.674     -105.480       26.806   270.0      1.479      1.703      1.520   20.058   20.058   20.058
0.4330         -67.5481     -78.690     -105.345       26.655   268.5      1.701      1.747      1.538   20.058   20.058   20.058
0.4340         -67.5545     -78.719     -105.734       27.015   272.1      1.861      1.750      1.562   20.059   20.059   20.059
0.4350         -67.5680     -78.757     -106.295       27.538   277.4      1.873      1.695      1.595   20.059   20.059   20.059
0.4360         -67.5661     -78.783     -106.299       27.516   277.2      1.723      1.604      1.641   20.060   20.060   20.060
0.4370         -67.5499     -78.797     -105.841       27.044   272.4      1.475      1.522      1.684   20.060   20.060   20.060
0.4380         -67.5482     -78.826     -105.743       26.917   271.1      1.232      1.485      1.695   20.060   20.060   20.060
0.4390         -67.5633     -78.874     -106.090       27.217   274.2      1.115      1.520      1.666   20.061   20.061   20.061
0.4400         -67.5686     -78.913     -106.043       27.129   273.3      1.199      1.620      1.621   20.061   20.061   20.061
0.4410         -67.5532     -78.933     -105.323       26.390   265.8      1.459      1.733      1.590   20.061   20.061   20.061
0.4420         -67.5418     -78.953     -104.855       25.902   260.9      1.774      1.780      1.589   20.061   20.061   20.061
0.4430         -67.5567     -78.998     -105.322       26.325   265.2      1.990      1.724      1.624   20.062   20.062   20.062
0.4440         -67.5754     -79.046     -105.990       26.943   271.4      2.008      1.604      1.699   20.062   20.062   20.062
0.4450         -67.5684     -79.071     -105.858       26.788   269.8      1.831      1.498      1.795   20.062   20.062   20.062
0.4460         -67.5481     -79.081     -105.300       26.219   264.1      1.543      1.458      1.861   20.062   20.062   20.062
0.4470         -67.5503     -79.112     -105.426       26.314   265.1      1.280      1.489      1.854   20.062   20.062   20.062
0.4480         -67.5721     -79.163     -106.145       26.982   271.8      1.190      1.564      1.778   20.062   20.062   20.062
0.4490         -67.5772     -79.199     -106.269       27.070   272.7      1.348      1.649      1.676   20.062   20.062   20.062
0.4500         -67.5569     -79.210     -105.509       26.299   264.9      1.689      1.704      1.590   20.062   20.062   20.062
0.4510         -67.5452     -79.227     -105.002       25.775   259.6      2.038      1.690      1.546   20.062   20.062   20.062
0.4520         -67.5613     -79.269     -105.483       26.214   264.1      2.215      1.626      1.555   20.062   20.062   20.062
0.4530         -67.5794     -79.313     -106.153       26.841   270.4      2.136      1.587      1.616   20.062   20.062   20.062
0.4540         -67.5728     -79.333     -106.019       26.686   268.8      1.852      1.628      1.700   20.062   20.062   20.062
0.4550         -67.5547     -79.341     -105.440       26.100   262.9      1.506      1.736      1.757   20.062   20.062   20.062
0.4560         -67.5572     -79.367     -105.423       26.056   262.5      1.264      1.849      1.761   20.061   20.061   20.061
0.4570         -67.5752     -79.407     -105.875       26.468   266.6      1.259      1.900      1.732   20.061   20.061   20.061
0.4580         -67.5771     -79.431     -105.858       26.427   266.2      1.507      1.853      1.690   20.061   20.061   20.061
0.4590         -67.5634     -79.438     -105.260       25.821   260.1      1.883      1.718      1.640   20.061   20.061   20.061
0.4600         -67.5578     -79.450     -104.889       25.439   256.3      2.192      1.550      1.587   20.060   20.060   20.060
0.4610         -67.5680     -79.475     -105.123       25.648   258.4      2.272      1.441      1.543   20.060   20.060   20.060
0.4620         -67.5764     -79.494     -105.483       25.989   261.8      2.082      1.458      1.523   20.060   20.060   20.060
0.4630         -67.5716     -79.499     -105.572       26.073   262.6      1.731      1.590      1.535   20.059   20.059   20.059
0.4640         -67.5681     -79.502     -105.621       26.118   263.1      1.400      1.771      1.578   20.059   20.059   20.059
0.4650         -67.5748     -79.515     -105.834       26.319   265.1      1.262      1.906      1.644   20.059   20.059   20.059
0.4660         -67.5797     -79.524     -105.903       26.379   265.7      1.401      1.910      1.720   20.058   20.058   20.058
0.4670         -67.5735     -79.522     -105.655       26.133   263.2      1.754      1.753      1.779   20.058   20.058   20.058
0.4680         -67.5702     -79.522     -105.452       25.930   261.2      2.147      1.487      1.775   20.057   20.057   20.057
0.4690         -67.5768     -79.529     -105.513       25.984   261.8      2.381      1.241      1.674   20.057   20.057   20.057
0.4700         -67.5811     -79.532     -105.538       26.006   262.0      2.337      1.148      1.496   20.056   20.056   20.056
0.4710         -67.5765     -79.523     -105.300       25.778   259.7      2.038      1.257      1.300   20.055   20.055   20.055
0.4720         -67.5722     -79.510     -105.072       25.562   257.5      1.630      1.509      1.159   20.055   20.055   20.055
0.4730         -67.5773     -79.504     -105.154       25.650   258.4      1.308      1.789      1.144   20.054   20.054   20.054
0.4740         -67.5845     -79.497     -105.327       25.830   260.2      1.228      1.976      1.281   20.053   20.053   20.053
0.4750         -67.5832     -79.479     -105.244       25.765   259.5      1.415      1.993      1.514   20.053   20.053   20.053
0.4760         -67.5796     -79.457     -104.989       25.532   257.2      1.743      1.838      1.732   20.052   20.052   20.052
0.4770         -67.5795     -79.436     -104.831       25.395   255.8      2.034      1.589      1.816   20.051   20.051   20.051
0.4780         -67.5834     -79.415     -104.866       25.451   256.4      2.135      1.365      1.717   20.050   20.050   20.050
0.4790         -67.5878     -79.390     -104.914       25.524   257.1      1.991      1.253      1.477   20.049   20.049   20.049
0.4800         -67.5820     -79.350     -104.779       25.429   256.2      1.673      1.273      1.210   20.049   20.049   20.049
0.4810         -67.5762     -79.306     -104.779       25.474   256.6      1.333      1.384      1.043   20.048   20.048   20.048
0.4820         -67.5871     -79.273     -105.196       25.923   261.1      1.127      1.528      1.058   20.047   20.047   20.047
0.4830         -67.5959     -79.236     -105.479       26.243   264.4      1.163      1.647      1.252   20.046   20.046   20.046
0.4840         -67.5880     -79.182     -105.209       26.027   262.2      1.432      1.687      1.545   20.045   20.045   20.045
0.4850         -67.5817     -79.129     -104.842       25.713   259.0      1.799      1.621      1.798   20.044   20.044   20.044
0.4860         -67.5851     -79.085     -104.817       25.732   259.2      2.101      1.481      1.883   20.043   20.043   20.043
0.4870         -67.5907     -79.040     -105.029       25.989   261.8      2.209      1.331      1.758   20.042   20.042   20.042
0.4880         -67.5947     -78.990     -105.146       26.156   263.5      2.070      1.224      1.479   20.041   20.041   20.041
0.4890         -67.5891     -78.927     -104.925       25.998   261.9      1.740      1.196      1.167   20.040   20.040   20.040
0.4900         -67.5789     -78.856     -104.680       25.824   260.1      1.359      1.240      0.966   20.039   20.039   20.039
0.4910         -67.5858     -78.798     -104.928       26.130   263.2      1.084      1.318      0.962   20.037   20.037   20.037
0.4920         -67.6003     -78.745     -105.327       26.582   267.8      1.031      1.402      1.158   20.036   20.036   20.036
0.4930         -67.5964     -78.674     -105.151       26.477   266.7      1.204      1.488      1.483   20.035   20.035   20.035
0.4940         -67.5845     -78.597     -104.621       26.024   262.2      1.488      1.568      1.788   20.034   20.034   20.034
0.4950         -67.5843     -78.532     -104.437       25.905   260.9      1.723      1.626      1.930   20.033   20.033   20.033
0.4960         -67.5932     -78.475     -104.669       26.194   263.9      1.795      1.642      1.857   20.031   20.031   20.031
0.4970         -67.6001     -78.413     -104.787       26.375   265.7      1.672      1.595      1.610   20.030   20.030   20.030
0.4980         -67.5900     -78.331     -104.415       26.084   262.8      1.410      1.485      1.300   20.029   20.029   20.029
0.4990         -67.5762     -78.242     -104.100       25.858   260.5      1.124      1.330      1.069   20.027   20.027   20.027
0.5000         -67.5846     -78.171     -104.546       26.376   265.7      0.938      1.170      1.008   20.026   20.026   20.026
0.5010         -67.6017     -78.104     -105.273       27.169   273.7      0.938      1.078      1.133   20.025   20.025   20.025
0.5020         -67.5965     -78.016     -105.355       27.339   275.4      1.125      1.118      1.385   20.023   20.023   20.023
0.5030         -67.5816     -77.923     -105.039       27.116   273.2      1.403      1.280      1.637   20.022   20.022   20.022
0.5040         -67.5829     -77.850     -105.132       27.282   274.8      1.649      1.495      1.762   20.020   20.020   20.020
0.5050         -67.5948     -77.790     -105.564       27.774   279.8      1.780      1.668      1.703   20.019   20.019   20.019
0.5060         -67.5980     -77.725     -105.594       27.869   280.7      1.771      1.707      1.494   20.017   20.017   20.017
0.5070         -67.5831     -77.644     -104.965       27.320   275.2      1.650      1.565      1.228   20.016   20.016   20.016
0.5080         -67.5687     -77.566     -104.411       26.846   270.4      1.478      1.271      1.014   20.014   20.014   20.014
0.5090         -67.5767     -77.507     -104.625       27.118   273.2      1.324      0.936      0.923   20.013   20.013   20.013
0.5100         -67.5913     -77.454     -105.099       27.645   278.5      1.237      0.732      0.980   20.011   20.011   20.011
0.5110         -67.5846     -77.382     -105.042       27.660   278.6      1.232      0.782      1.153   20.009   20.009   20.009
0.5120         -67.5710     -77.308     -104.794       27.486   276.9      1.283      1.062      1.351   20.008   20.008   20.008
0.5130         -67.5752     -77.257     -105.061       27.804   280.1      1.360      1.430      1.470   20.006   20.006   20.006
0.5140         -67.5847     -77.216     -105.603       28.387   286.0      1.436      1.721      1.468   20.004   20.004   20.004
0.5150         -67.5834     -77.170     -105.797       28.628   288.4      1.479      1.798      1.364   20.003   20.003   20.003
0.5160         -67.5760     -77.123     -105.578       28.454   286.6      1.465      1.619      1.209   20.001   20.001   20.001
0.5170         -67.5696     -77.082     -105.261       28.179   283.9      1.393      1.268      1.079   19.999   19.999   19.999
0.5180         -67.5666     -77.047     -105.144       28.097   283.0      1.282      0.906      1.036   19.997   19.997   19.997
0.5190         -67.5700     -77.021     -105.264       28.242   284.5      1.161      0.699      1.091   19.996   19.996   19.996
0.5200         -67.5707     -76.997     -105.349       28.352   285.6      1.069      0.751      1.215   19.994   19.994   19.994
0.5210         -67.5650     -76.974     -105.275       28.301   285.1      1.043      1.036      1.361   19.992   19.992   19.992
0.5220         -67.5612     -76.959     -105.290       28.330   285.4      1.091      1.411      1.469   19.990   19.990   19.990
0.5230         -67.5634     -76.959     -105.551       28.591   288.0      1.184      1.704      1.489   19.988   19.988   19.988
0.5240         -67.5658     -76.967     -105.880       28.914   291.3      1.276      1.776      1.422   19.986   19.986   19.986
0.5250         -67.5645     -76.978     -106.034       29.056   292.7      1.316      1.589      1.302   19.984   19.984   19.984
0.5260         -67.5595     -76.992     -105.944       28.952   291.6      1.285      1.236      1.167   19.982   19.982   19.982
0.5270         -67.5548     -77.011     -105.748       28.737   289.5      1.195      0.894      1.054   19.980   19.980   19.980
0.5280         -67.5533     -77.037     -105.571       28.534   287.4      1.082      0.723      0.998   19.978   19.978   19.978
0.5290         -67.5522     -77.069     -105.402       28.333   285.4      0.994      0.792      1.028   19.976   19.976   19.976
0.5300         -67.5484     -77.104     -105.241       28.137   283.4      0.973      1.058      1.146   19.974   19.974   19.974
0.5310         -67.5456     -77.148     -105.270       28.122   283.3      1.025      1.390      1.306   19.972   19.972   19.972
0.5320         -67.5503     -77.206     -105.603       28.397   286.1      1.111      1.621      1.436   19.970   19.970   19.970
0.5330         -67.5547     -77.272     -105.933       28.660   288.7      1.185      1.642      1.476   19.968   19.968   19.968
0.5340         -67.5469     -77.333     -105.933       28.600   288.1      1.216      1.464      1.405   19.966   19.966   19.966
0.5350         -67.5380     -77.397     -105.867       28.470   286.8      1.185      1.190      1.247   19.964   19.964   19.964
0.5360         -67.5401     -77.475     -106.110       28.635   288.5      1.102      0.949      1.078   19.961   19.961   19.961
0.5370         -67.5467     -77.563     -106.439       28.877   290.9      1.012      0.846      0.983   19.959   19.959   19.959
0.5380         -67.5435     -77.648     -106.401       28.753   289.6      0.958      0.941      1.002   19.957   19.957   19.957
0.5390         -67.5340     -77.733     -106.070       28.337   285.4      0.956      1.202      1.105   19.955   19.955   19.955
0.5400         -67.5306     -77.832     -105.934       28.102   283.1      1.000      1.495      1.222   19.953   19.953   19.953
0.5410         -67.5382     -77.948     -106.129       28.181   283.9      1.069      1.667      1.292   19.950   19.950   19.950
0.5420         -67.5417     -78.066     -106.222       28.156   283.6      1.136      1.650      1.290   19.948   19.948   19.948
0.5430         -67.5309     -78.174     -106.014       27.840   280.4      1.182      1.480      1.230   19.946   19.946   19.946
0.5440         -67.5247     -78.287     -106.019       27.732   279.4      1.180      1.251      1.142   19.943   19.943   19.943
0.5450         -67.5344     -78.418     -106.512       28.093   283.0      1.129      1.075      1.053   19.941   19.941   19.941
0.5460         -67.5403     -78.551     -106.896       28.345   285.5      1.064      1.032      0.993   19.939   19.939   19.939
0.5470         -67.5292     -78.671     -106.767       28.095   283.0      1.020      1.128      0.977   19.936   19.936   19.936
0.5480         -67.5215     -78.799     -106.634       27.835   280.4      1.005      1.284      0.996   19.934   19.934   19.934
0.5490         -67.5282     -78.945     -106.903       27.958   281.6      1.008      1.392      1.050   19.931   19.931   19.931
0.5500         -67.5334     -79.096     -107.243       28.147   283.5      1.021      1.384      1.139   19.929   19.929   19.929
0.5510         -67.5305     -79.244     -107.297       28.053   282.6      1.050      1.259      1.233   19.927   19.927   19.927
0.5520         -67.5243     -79.392     -107.152       27.760   279.6      1.088      1.084      1.304   19.924   19.924   19.924
0.5530         -67.5196     -79.543     -107.121       27.578   277.8      1.121      0.957      1.341   19.921   19.921   19.921
0.5540         -67.5237     -79.705     -107.390       27.685   278.9      1.130      0.944      1.340   19.919   19.919   19.919
0.5550         -67.5301     -79.874     -107.673       27.799   280.0      1.112      1.047      1.309   19.916   19.916   19.916
0.5560         -67.5240     -80.034     -107.616       27.582   277.8      1.086      1.227      1.256   19.914   19.914   19.914
0.5570         -67.5161     -80.193     -107.483       27.289   274.9      1.061      1.402      1.176   19.911   19.911   19.911
0.5580         -67.5208     -80.367     -107.642       27.275   274.8      1.037      1.492      1.076   19.909   19.909   19.909
0.5590         -67.5269     -80.544     -107.864       27.321   275.2      1.017      1.470      0.988   19.906   19.906   19.906
0.5600         -67.5248     -80.713     -107.796       27.083   272.8      1.004      1.362      0.950   19.903   19.903   19.903
0.5610         -67.5201     -80.877     -107.525       26.648   268.4      0.997      1.231      0.978   19.901   19.901   19.901
0.5620         -67.5202     -81.042     -107.358       26.316   265.1      1.016      1.151      1.051   19.898   19.898   19.898
0.5630         -67.5248     -81.210     -107.374       26.163   263.6      1.080      1.159      1.125   19.895   19.895   19.895
0.5640         -67.5271     -81.375     -107.357       25.982   261.7      1.182      1.241      1.168   19.893   19.893   19.893
0.5650         -67.5240     -81.532     -107.243       25.711   259.0      1.271      1.348      1.162   19.890   19.890   19.890
0.5660         -67.5219     -81.686     -107.285       25.598   257.9      1.278      1.414      1.117   19.887   19.887   19.887
0.5670         -67.5256     -81.843     -107.661       25.818   260.1      1.173      1.400      1.058   19.884   19.884   19.884
0.5680         -67.5326     -82.000     -108.191       26.191   263.8      0.984      1.316      1.013   19.881   19.881   19.881
0.5690         -67.5357     -82.151     -108.503       26.351   265.4      0.793      1.196      1.012   19.879   19.879   19.879
0.5700         -67.5313     -82.292     -108.441       26.150   263.4      0.696      1.089      1.052   19.876   19.876   19.876
0.5710         -67.5256     -82.427     -108.278       25.851   260.4      0.743      1.037      1.104   19.873   19.873   19.873
0.5720         -67.5278     -82.567     -108.373       25.806   260.0      0.916      1.039      1.146   19.870   19.870   19.870
0.5730         -67.5371     -82.714     -108.633       25.919   261.1      1.146      1.059      1.178   19.867   19.867   19.867
0.5740         -67.5380     -82.853     -108.625       25.772   259.6      1.351      1.067      1.203   19.864   19.864   19.864
0.5750         -67.5300     -82.979     -108.355       25.376   255.6      1.460      1.056      1.209   19.861   19.861   19.861
0.5760         -67.5279     -83.105     -108.301       25.196   253.8      1.443      1.040      1.177   19.858   19.858   19.858
0.5770         -67.5363     -83.236     -108.639       25.403   255.9      1.327      1.048      1.105   19.855   19.855   19.855
0.5780         -67.5427     -83.362     -109.001       25.639   258.3      1.180      1.091      1.021   19.852   19.852   19.852
0.5790         -67.5435     -83.477     -109.035       25.558   257.5      1.071      1.153      0.955   19.849   19.849   19.849
0.5800         -67.5388     -83.583     -108.774       25.191   253.8      1.036      1.212      0.926   19.846   19.846   19.846
0.5810         -67.5359     -83.683     -108.553       24.870   250.5      1.069      1.240      0.934   19.843   19.843   19.843
0.5820         -67.5417     -83.788     -108.597       24.809   249.9      1.133      1.215      0.971   19.840   19.840   19.840
0.5830         -67.5458     -83.885     -108.709       24.824   250.1      1.197      1.152      1.026   19.837   19.837   19.837
0.5840         -67.5426     -83.969     -108.770       24.801   249.8      1.237      1.089      1.073   19.834   19.834   19.834
0.5850         -67.5434     -84.052     -109.004       24.952   251.4      1.233      1.060      1.078   19.831   19.831   19.831
0.5860         -67.5501     -84.137     -109.416       25.279   254.6      1.180      1.088      1.045   19.828   19.828   19.828
0.5870         -67.5520     -84.212     -109.731       25.519   257.1      1.108      1.164      1.003   19.824   19.824   19.824
0.5880         -67.5522     -84.282     -109.906       25.624   258.1      1.049      1.240      0.974   19.821   19.821   19.821
0.5890         -67.5544     -84.351     -109.958       25.606   257.9      1.027      1.269      0.970   19.818   19.818   19.818
0.5900         -67.5516     -84.412     -109.819       25.407   255.9      1.068      1.227      1.000   19.815   19.815   19.815
0.5910         -67.5477     -84.467     -109.703       25.236   254.2      1.172      1.117      1.055   19.812   19.812   19.812
0.5920         -67.5539     -84.528     -109.808       25.279   254.6      1.304      0.983      1.117   19.808   19.808   19.808
0.5930         -67.5579     -84.584     -109.898       25.315   255.0      1.417      0.893      1.168   19.805   19.805   19.805
0.5940         -67.5552     -84.628     -109.783       25.155   253.4      1.463      0.895      1.178   19.802   19.802   19.802
0.5950         -67.5540     -84.670     -109.625       24.955   251.4      1.411      0.977      1.131   19.798   19.798   19.798
0.5960         -67.5556     -84.708     -109.572       24.863   250.5      1.279      1.086      1.039   19.795   19.795   19.795
0.5970         -67.5592     -84.742     -109.607       24.865   250.5      1.116      1.161      0.923   19.792   19.792   19.792
0.5980         -67.5634     -84.768     -109.605       24.837   250.2      0.980      1.164      0.805   19.788   19.788   19.788
0.5990         -67.5625     -84.782     -109.424       24.642   248.2      0.928      1.095      0.724   19.785   19.785   19.785
0.6000         -67.5597     -84.787     -109.185       24.398   245.8      0.981      1.004      0.718   19.781   19.781   19.781
0.6010         -67.5621     -84.790     -109.134       24.344   245.2      1.108      0.947      0.804   19.778   19.778   19.778
0.6020         -67.5663     -84.791     -109.217       24.426   246.1      1.252      0.968      0.963   19.775   19.775   19.775
0.6030         -67.5661     -84.783     -109.263       24.481   246.6      1.348      1.083      1.128   19.771   19.771   19.771
0.6040         -67.5669     -84.773     -109.356       24.583   247.6      1.353      1.256      1.219   19.768   19.768   19.768
0.6050         -67.5698     -84.759     -109.581       24.822   250.0      1.265      1.398      1.199   19.764   19.764   19.764
0.6060         -67.5730     -84.740     -109.856       25.117   253.0      1.106      1.430      1.079   19.761   19.761   19.761
0.6070         -67.5738     -84.709     -110.062       25.352   255.4      0.926      1.320      0.903   19.757   19.757   19.757
0.6080         -67.5722     -84.667     -110.186       25.519   257.1      0.793      1.094      0.757   19.754   19.754   19.754
0.6090         -67.5751     -84.622     -110.311       25.688   258.8      0.769      0.843      0.720   19.750   19.750   19.750
0.6100         -67.5797     -84.574     -110.307       25.733   259.2      0.893      0.681      0.811   19.746   19.746   19.746
0.6110         -67.5754     -84.516     -110.003       25.487   256.7      1.141      0.687      0.984   19.743   19.743   19.743
0.6120         -67.5692     -84.458     -109.677       25.220   254.0      1.414      0.871      1.156   19.739   19.739   19.739
0.6130         -67.3771     -84.215     -109.484       25.268   254.5      1.557      1.135      1.217   19.736   19.736   19.736
0.6140         -67.3848     -84.171     -109.580       25.409   256.0      1.556      1.397      1.195   19.732   19.732   19.732
0.6150         -67.3823     -84.112     -109.373       25.261   254.5      1.381      1.494      1.078   19.728   19.728   19.728
0.6160         -67.3743     -84.041     -109.014       24.972   251.6      1.107      1.363      0.908   19.724   19.724   19.724
0.6170         -67.3748     -83.968     -108.980       25.013   252.0      0.848      1.069      0.738   19.721   19.721   19.721
0.6180         -67.3866     -83.894     -109.277       25.383   255.7      0.707      0.767      0.632   19.717   19.717   19.717
0.6190         -67.3917     -83.804     -109.290       25.486   256.7      0.739      0.614      0.643   19.713   19.713   19.713
0.6200         -67.3806     -83.696     -108.794       25.097   252.8      0.912      0.690      0.770   19.710   19.710   19.710
0.6210         -67.3740     -83.595     -108.447       24.852   250.3      1.119      0.956      0.949   19.706   19.706   19.706
0.6220         -67.3836     -83.510     -108.667       25.156   253.4      1.246      1.298      1.103   19.702   19.702   19.702
0.6230         -67.3918     -83.422     -108.976       25.554   257.4      1.230      1.576      1.168   19.698   19.698   19.698
0.6240         -67.3870     -83.318     -108.925       25.608   258.0      1.066      1.669      1.123   19.694   19.694   19.694
0.6250         -67.3791     -83.204     -108.751       25.547   257.3      0.819      1.520      0.998   19.690   19.690   19.690
0.6260         -67.3804     -83.089     -108.918       25.828   260.2      0.601      1.193      0.856   19.687   19.687   19.687
0.6270         -67.3905     -82.972     -109.361       26.389   265.8      0.510      0.842      0.761   19.683   19.683   19.683
0.6280         -67.3916     -82.839     -109.531       26.691   268.9      0.597      0.622      0.751   19.679   19.679   19.679
0.6290         -67.3797     -82.693     -109.360       26.666   268.6      0.836      0.611      0.817   19.675   19.675   19.675
0.6300         -67.3778     -82.561     -109.431       26.870   270.7      1.115      0.780      0.909   19.671   19.671   19.671
0.6310         -67.3884     -82.446     -109.780       27.334   275.3      1.297      1.035      0.988   19.667   19.667   19.667
0.6320         -67.3881     -82.324     -109.765       27.441   276.4      1.299      1.258      1.031   19.663   19.663   19.663
0.6330         -67.3747     -82.192     -109.312       27.120   273.2      1.120      1.338      1.014   19.659   19.659   19.659
0.6340         -67.3692     -82.068     -109.063       26.995   271.9      0.835      1.219      0.933   19.655   19.655   19.655
0.6350         -67.3772     -81.952     -109.262       27.310   275.1      0.563      0.948      0.812   19.651   19.651   19.651
0.6360         -67.3812     -81.826     -109.437       27.611   278.1      0.413      0.659      0.694   19.647   19.647   19.647
0.6370         -67.3734     -81.686     -109.297       27.611   278.1      0.442      0.487      0.619   19.643   19.643   19.643
0.6380         -67.3659     -81.549     -109.214       27.664   278.7      0.619      0.502      0.610   19.639   19.639   19.639
0.6390         -67.3709     -81.431     -109.497       28.066   282.7      0.848      0.692      0.667   19.635   19.635   19.635
0.6400         -67.3755     -81.320     -109.786       28.466   286.8      1.016      0.989      0.770   19.631   19.631   19.631
0.6410         -67.3684     -81.207     -109.709       28.502   287.1      1.042      1.281      0.884   19.627   19.627   19.627
0.6420         -67.3579     -81.099     -109.501       28.402   286.1      0.914      1.448      0.960   19.623   19.623   19.623
0.6430         -67.3576     -81.007     -109.572       28.564   287.7      0.684      1.416      0.959   19.619   19.619   19.619
0.6440         -67.3657     -80.925     -109.809       28.884   291.0      0.447      1.190      0.886   19.615   19.615   19.615
0.6450         -67.3638     -80.833     -109.724       28.891   291.0      0.301      0.863      0.766   19.610   19.610   19.610
0.6460         -67.3513     -80.733     -109.344       28.612   288.2      0.305      0.564      0.626   19.606   19.606   19.606
0.6470         -67.3476     -80.646     -109.247       28.601   288.1      0.444      0.393      0.500   19.602   19.602   19.602
0.6480         -67.3542     -80.574     -109.520       28.946   291.6      0.646      0.395      0.442   19.598   19.598   19.598
0.6490         -67.3543     -80.506     -109.674       29.168   293.8      0.825      0.555      0.489   19.594   19.594   19.594
0.6500         -67.3460     -80.442     -109.520       29.078   292.9      0.912      0.794      0.624   19.590   19.590   19.590
0.6510         -67.3392     -80.393     -109.362       28.969   291.8      0.878      1.006      0.795   19.585   19.585   19.585
0.6520         -67.3412     -80.362     -109.396       29.034   292.5      0.741      1.106      0.935   19.581   19.581   19.581
0.6530         -67.3448     -80.340     -109.360       29.019   292.3      0.555      1.058      0.990   19.577   19.577   19.577
0.6540         -67.3374     -80.312     -108.965       28.653   288.6      0.396      0.888      0.938   19.573   19.573   19.573
0.6550         -67.3279     -80.285     -108.531       28.246   284.5      0.330      0.662      0.789   19.568   19.568   19.568
0.6560         -67.3312     -80.271     -108.503       28.232   284.4      0.380      0.452      0.600   19.564   19.564   19.564
0.6570         -67.3358     -80.261     -108.662       28.401   286.1      0.521      0.343      0.457   19.560   19.560   19.560
0.6580         -67.3327     -80.249     -108.659       28.409   286.2      0.685      0.392      0.411   19.556   19.556   19.556
0.6590         -67.3281     -80.244     -108.552       28.308   285.2      0.791      0.590      0.470   19.551   19.551   19.551
0.6600         -67.3248     -80.250     -108.511       28.261   284.7      0.783      0.870      0.609   19.547   19.547   19.547
0.6610         -67.3232     -80.266     -108.625       28.359   285.7      0.651      1.118      0.765   19.543   19.543   19.543
0.6620         -67.3259     -80.294     -108.840       28.546   287.6      0.438      1.213      0.868   19.538   19.538   19.538
0.6630         -67.3242     -80.322     -108.925       28.603   288.1      0.232      1.096      0.882   19.534   19.534   19.534
0.6640         -67.3190     -80.348     -108.867       28.519   287.3      0.120      0.802      0.797   19.530   19.530   19.530
0.6650         -67.3191     -80.380     -108.844       28.464   286.7      0.142      0.448      0.631   19.525   19.525   19.525
0.6660         -67.3175     -80.412     -108.848       28.437   286.5      0.280      0.188      0.442   19.521   19.521   19.521
0.6670         -67.3162     -80.447     -108.869       28.421   286.3      0.469      0.137      0.303   19.517   19.517   19.517
0.6680         -67.3168     -80.492     -108.889       28.397   286.1      0.614      0.311      0.277   19.512   19.512   19.512
0.6690         -67.3150     -80.544     -108.785       28.241   284.5      0.640      0.635      0.383   19.508   19.508   19.508
0.6700         -67.3100     -80.602     -108.581       27.979   281.8      0.521      0.970      0.561   19.503   19.503   19.503
0.6710         -67.3073     -80.669     -108.458       27.790   279.9      0.305      1.163      0.720   19.499   19.499   19.499
0.6720         -67.3073     -80.741     -108.510       27.769   279.7      0.091      1.115      0.790   19.495   19.495   19.495
0.6730         -67.3101     -80.816     -108.685       27.869   280.7     -0.021      0.828      0.740   19.490   19.490   19.490
0.6740         -67.3111     -80.888     -108.763       27.875   280.8      0.012      0.408      0.594   19.486   19.486   19.486
0.6750         -67.3043     -80.950     -108.653       27.703   279.1      0.166      0.031      0.421   19.481   19.481   19.481
0.6760         -67.3029     -81.018     -108.671       27.654   278.6      0.358     -0.140      0.280   19.477   19.477   19.477
0.6770         -67.3102     -81.097     -108.918       27.821   280.2      0.500     -0.023      0.219   19.472   19.472   19.472
0.6780         -67.3100     -81.177     -109.010       27.833   280.4      0.542      0.339      0.259   19.468   19.468   19.468
0.6790         -67.3025     -81.258     -108.899       27.641   278.4      0.474      0.780      0.379   19.463   19.463   19.463
0.6800         -67.3019     -81.352     -108.914       27.562   277.6      0.334      1.093      0.523   19.459   19.459   19.459
0.6810         -67.3032     -81.453     -109.065       27.612   278.1      0.194      1.153      0.652   19.454   19.454   19.454
0.6820         -67.3042     -81.556     -109.191       27.635   278.4      0.114      0.952      0.733   19.450   19.450   19.450
0.6830         -67.3032     -81.657     -109.177       27.521   277.2      0.118      0.590      0.756   19.445   19.445   19.445
0.6840         -67.2959     -81.749     -109.096       27.347   275.5      0.201      0.231      0.728   19.441   19.441   19.441
0.6850         -67.2962     -81.848     -109.350       27.502   277.0      0.317      0.018      0.654   19.436   19.436   19.436
0.6860         -67.3089     -81.963     -109.894       27.931   281.4      0.409      0.025      0.551   19.432   19.432   19.432
0.6870         -67.3074     -82.069     -110.076       28.007   282.1      0.437      0.246      0.453   19.427   19.427   19.427
0.6880         -67.2941     -82.169     -109.890       27.721   279.2      0.369      0.567      0.383   19.423   19.423   19.423
0.6890         -67.2926     -82.284     -109.970       27.686   278.9      0.213      0.819      0.343   19.418   19.418   19.418
0.6900         -67.3006     -82.412     -110.415       28.003   282.1      0.036      0.883      0.340   19.414   19.414   19.414
0.6910         -67.3054     -82.541     -110.752       28.211   284.2     -0.066      0.729      0.378   19.409   19.409   19.409
0.6920         -67.3020     -82.664     -110.630       27.966   281.7     -0.030      0.421      0.444   19.405   19.405   19.405
0.6930         -67.2914     -82.780     -110.215       27.435   276.4      0.156      0.102      0.513   19.400   19.400   19.400
0.6940         -67.2865     -82.902     -110.090       27.188   273.9      0.446     -0.082      0.549   19.395   19.395   19.395
0.6950         -67.2956     -83.042     -110.504       27.462   276.6      0.738     -0.040      0.526   19.391   19.391   19.391
0.6960         -67.3031     -83.189     -110.961       27.772   279.8      0.921      0.234      0.459   19.386   19.386   19.386
0.6970         -67.2961     -83.329     -111.019       27.690   278.9      0.929      0.627      0.389   19.382   19.382   19.382
0.6980         -67.2849     -83.469     -111.006       27.536   277.4      0.765      0.959      0.347   19.377   19.377   19.377
0.6990         -67.2860     -83.625     -111.511       27.885   280.9      0.496      1.077      0.341   19.372   19.372   19.372
0.7000         -67.2566     -83.755     -112.389       28.635   288.4      0.218      0.914      0.361   19.368   19.368   19.368
0.7010         -67.2630     -83.925     -112.940       29.015   292.3      0.052      0.562      0.401   19.363   19.363   19.363
0.7020         -67.2517     -84.080     -112.701       28.621   288.3      0.042      0.183      0.423   19.358   19.358   19.358
0.7030         -67.2391     -84.233     -112.236       28.003   282.1      0.170     -0.040      0.396   19.354   19.354   19.354
0.7040         -67.2428     -84.404     -112.233       27.829   280.3      0.362     -0.011      0.315   19.349   19.349   19.349
0.7050         -67.2522     -84.588     -112.547       27.960   281.6      0.528      0.256      0.211   19.344   19.344   19.344
0.7060         -67.2519     -84.770     -112.632       27.862   280.7      0.598      0.637      0.119   19.340   19.340   19.340
0.7070         -67.2425     -84.948     -112.454       27.506   277.1      0.547      0.944      0.061   19.335   19.335   19.335
0.7080         -67.2392     -85.133     -112.475       27.342   275.4      0.408      1.013      0.044   19.330   19.330   19.330
0.7090         -67.2481     -85.330     -112.833       27.503   277.0      0.258      0.805      0.068   19.326   19.326   19.326
0.7100         -67.2535     -85.523     -113.065       27.542   277.4      0.175      0.421      0.118   19.321   19.321   19.321
0.7110         -67.2474     -85.701     -112.875       27.174   273.7      0.189      0.047      0.167   19.316   19.316   19.316
0.7120         -67.2411     -85.875     -112.608       26.733   269.3      0.280     -0.147      0.185   19.312   19.312   19.312
0.7130         -67.2453     -86.057     -112.662       26.605   268.0      0.396     -0.085      0.155   19.307   19.307   19.307
0.7140         -67.2522     -86.244     -112.865       26.621   268.2      0.487      0.187      0.093   19.302   19.302   19.302
0.7150         -67.2510     -86.425     -112.859       26.434   266.3      0.522      0.525      0.019   19.297   19.297   19.297
0.7160         -67.2440     -86.600     -112.704       26.104   263.0      0.490      0.753     -0.047   19.293   19.293   19.293
0.7170         -67.2407     -86.775     -112.850       26.075   262.7      0.401      0.761     -0.086   19.288   19.288   19.288
0.7180         -67.2501     -86.960     -113.551       26.591   267.9      0.282      0.559     -0.090   19.283   19.283   19.283
0.7190         -67.2631     -87.148     -114.323       27.175   273.7      0.168      0.260     -0.052   19.279   19.279   19.279
0.7200         -67.2604     -87.321     -114.458       27.137   273.4      0.100      0.023      0.035   19.274   19.274   19.274
0.7210         -67.2466     -87.480     -114.109       26.629   268.2      0.092     -0.032      0.140   19.269   19.269   19.269
0.7220         -67.2438     -87.648     -114.059       26.411   266.0      0.134      0.113      0.225   19.264   19.264   19.264
0.7230         -67.2545     -87.833     -114.503       26.670   268.7      0.203      0.385      0.271   19.260   19.260   19.260
0.7240         -67.2624     -88.021     -114.856       26.834   270.3      0.272      0.671      0.260   19.255   19.255   19.255
0.7250         -67.2569     -88.199     -114.679       26.480   266.7      0.307      0.853      0.177   19.250   19.250   19.250
0.7260         -67.2469     -88.367     -114.318       25.952   261.4      0.275      0.857      0.033   19.245   19.245   19.245
0.7270         -67.2474     -88.537     -114.462       25.925   261.2      0.171      0.683     -0.136   19.240   19.240   19.240
0.7280         -67.2641     -88.716     -115.134       26.418   266.1      0.032      0.397     -0.271   19.236   19.236   19.236
0.7290         -67.2727     -88.884     -115.532       26.648   268.4     -0.078      0.117     -0.304   19.231   19.231   19.231
0.7300         -67.2615     -89.028     -115.227       26.199   263.9     -0.104     -0.040     -0.210   19.226   19.226   19.226
0.7310         -67.2517     -89.169     -114.850       25.682   258.7     -0.040     -0.020     -0.037   19.221   19.221   19.221
0.7320         -67.2596     -89.326     -114.994       25.668   258.6      0.093      0.156      0.138   19.217   19.217   19.217
0.7330         -67.2698     -89.489     -115.296       25.807   260.0      0.264      0.426      0.250   19.212   19.212   19.212
0.7340         -67.2668     -89.642     -115.233       25.591   257.8      0.428      0.697      0.257   19.207   19.207   19.207
0.7350         -67.2585     -89.787     -115.023       25.236   254.2      0.523      0.862      0.156   19.202   19.202   19.202
0.7360         -67.2623     -89.938     -115.156       25.218   254.0      0.508      0.859     -0.009   19.197   19.197   19.197
0.7370         -67.2737     -90.089     -115.555       25.467   256.5      0.383      0.702     -0.155   19.193   19.193   19.193
0.7380         -67.2772     -90.224     -115.735       25.511   257.0      0.195      0.465     -0.209   19.188   19.188   19.188
0.7390         -67.2715     -90.341     -115.605       25.265   254.5      0.009      0.238     -0.149   19.183   19.183   19.183
0.7400         -67.2708     -90.454     -115.565       25.111   253.0     -0.124      0.090     -0.014   19.178   19.178   19.178
0.7410         -67.2783     -90.569     -115.791       25.222   254.1     -0.173      0.051      0.121   19.173   19.173   19.173
0.7420         -67.2851     -90.682     -115.962       25.280   254.7     -0.124      0.113      0.186   19.168   19.168   19.168
0.7430         -67.2806     -90.780     -115.793       25.013   252.0      0.000      0.239      0.144   19.164   19.164   19.164
0.7440         -67.2726     -90.870     -115.616       24.746   249.3      0.134      0.373      0.001   19.159   19.159   19.159
0.7450         -67.2782     -90.968     -115.932       24.964   251.5      0.208      0.459     -0.193   19.154   19.154   19.154
0.7460         -67.2915     -91.069     -116.513       25.444   256.3      0.204      0.471     -0.352   19.149   19.149   19.149
0.7470         -67.2919     -91.152     -116.757       25.604   257.9      0.147      0.421     -0.398   19.144   19.144   19.144
0.7480         -67.2854     -91.224     -116.685       25.461   256.5      0.069      0.335     -0.325   19.139   19.139   19.139
0.7490         -67.2867     -91.298     -116.693       25.394   255.8     -0.003      0.239     -0.183   19.134   19.134   19.134
0.7500         -67.2912     -91.371     -116.826       25.455   256.4     -0.049      0.157     -0.040   19.130   19.130   19.130
0.7510         -67.2932     -91.439     -116.937       25.498   256.9     -0.065      0.102      0.030   19.125   19.125   19.125
0.7520         -67.2940     -91.501     -116.998       25.497   256.8     -0.058      0.078     -0.020   19.120   19.120   19.120
0.7530         -67.2949     -91.557     -117.061       25.503   256.9     -0.041      0.086     -0.178   19.115   19.115   19.115
0.7540         -67.2981     -91.611     -117.146       25.535   257.2     -0.029      0.115     -0.383   19.110   19.110   19.110
0.7550         -67.3010     -91.659     -117.146       25.487   256.7     -0.030      0.162     -0.551   19.105   19.105   19.105
0.7560         -67.2989     -91.697     -117.002       25.305   254.9     -0.045      0.229     -0.606   19.100   19.100   19.100
0.7570         -67.2968     -91.731     -116.923       25.192   253.8     -0.065      0.299     -0.523   19.096   19.096   19.096
0.7580         -67.3025     -91.770     -117.051       25.281   254.7     -0.078      0.336     -0.320   19.091   19.091   19.091
0.7590         -67.3072     -91.806     -117.146       25.340   255.3     -0.081      0.306     -0.044   19.086   19.086   19.086
0.7600         -67.3052     -91.834     -117.011       25.177   253.6     -0.080      0.199      0.224   19.081   19.081   19.081
0.7610         -67.3022     -91.857     -116.827       24.971   251.5     -0.084      0.052      0.377   19.076   19.076   19.076
0.7620         -67.3043     -91.878     -116.880       25.002   251.9     -0.098     -0.068      0.355   19.071   19.071   19.071
0.7630         -67.3106     -91.896     -117.173       25.277   254.6     -0.119     -0.100      0.173   19.066   19.066   19.066
0.7640         -67.3146     -91.905     -117.457       25.552   257.4     -0.140     -0.023     -0.085   19.062   19.062   19.062
0.7650         -67.3134     -91.903     -117.580       25.677   258.7     -0.155      0.132     -0.314   19.057   19.057   19.057
0.7660         -67.3131     -91.899     -117.648       25.749   259.4     -0.157      0.289     -0.433   19.052   19.052   19.052
0.7670         -67.3173     -91.898     -117.713       25.815   260.0     -0.140      0.373     -0.414   19.047   19.047   19.047
0.7680         -67.3187     -91.892     -117.599       25.707   259.0     -0.099      0.337     -0.285   19.042   19.042   19.042
0.7690         -67.3146     -91.878     -117.267       25.389   255.8     -0.048      0.176     -0.116   19.037   19.037   19.037
0.7700         -67.3122     -91.862     -117.013       25.151   253.4     -0.018     -0.064      0.005   19.032   19.032   19.032
0.7710         -67.3173     -91.846     -117.068       25.222   254.1     -0.037     -0.292      0.019   19.028   19.028   19.028
0.7720         -67.3231     -91.823     -117.251       25.428   256.1     -0.099     -0.418     -0.069   19.023   19.023   19.023
0.7730         -67.3232     -91.788     -117.296       25.508   256.9     -0.182     -0.398     -0.202   19.018   19.018   19.018
0.7740         -67.3213     -91.746     -117.245       25.499   256.9     -0.258     -0.245     -0.317   19.013   19.013   19.013
0.7750         -67.3220     -91.703     -117.287       25.584   257.7     -0.300     -0.028     -0.368   19.008   19.008   19.008
0.7760         -67.3264     -91.662     -117.433       25.770   259.6     -0.294      0.163     -0.340   19.003   19.003   19.003
0.7770         -67.3296     -91.620     -117.460       25.841   260.3     -0.249      0.250     -0.255   18.998   18.998   18.998
0.7780         -67.3267     -91.570     -117.192       25.622   258.1     -0.196      0.194     -0.151   18.993   18.993   18.993
0.7790         -67.2103     -91.402     -116.721       25.320   255.1     -0.211     -0.038     -0.125   18.989   18.989   18.989
0.7800         -67.2120     -91.346     -116.637       25.291   254.8     -0.233     -0.297     -0.132   18.984   18.984   18.984
0.7810         -67.2189     -91.287     -116.810       25.523   257.1     -0.296     -0.522     -0.205   18.979   18.979   18.979
0.7820         -67.2217     -91.216     -116.973       25.758   259.5     -0.374     -0.616     -0.307   18.974   18.974   18.974
0.7830         -67.2238     -91.138     -116.979       25.841   260.3     -0.444     -0.540     -0.394   18.969   18.969   18.969
0.7840         -67.2214     -91.054     -116.813       25.759   259.5     -0.493     -0.327     -0.425   18.964   18.964   18.964
0.7850         -67.2179     -90.968     -116.696       25.728   259.2     -0.522     -0.076     -0.387   18.959   18.959   18.959
0.7860         -67.2217     -90.889     -116.856       25.967   261.6     -0.536      0.096     -0.311   18.955   18.955   18.955
0.7870         -67.2273     -90.811     -117.092       26.282   264.7     -0.538      0.108     -0.237   18.950   18.950   18.950
0.7880         -67.2274     -90.724     -117.079       26.354   265.5     -0.531     -0.058     -0.207   18.945   18.945   18.945
0.7890         -67.2248     -90.632     -116.818       26.186   263.8     -0.521     -0.352     -0.251   18.940   18.940   18.940
0.7900         -67.2229     -90.534     -116.514       25.980   261.7     -0.509     -0.679     -0.357   18.935   18.935   18.935
0.7910         -67.2232     -90.432     -116.355       25.922   261.1     -0.494     -0.926     -0.473   18.930   18.930   18.930
0.7920         -67.2274     -90.329     -116.402       26.073   262.6     -0.478     -1.011     -0.552   18.926   18.926   18.926
0.7930         -67.2300     -90.221     -116.492       26.271   264.6     -0.453     -0.910     -0.566   18.921   18.921   18.921
0.7940         -67.2278     -90.109     -116.512       26.403   266.0     -0.427     -0.664     -0.512   18.916   18.916   18.916
0.7950         -67.2277     -90.001     -116.552       26.550   267.5     -0.420     -0.374     -0.423   18.911   18.911   18.911
0.7960         -67.2294     -89.898     -116.595       26.696   268.9     -0.452     -0.150     -0.342   18.906   18.906   18.906
0.7970         -67.2285     -89.794     -116.514       26.720   269.2     -0.527     -0.073     -0.301   18.902   18.902   18.902
0.7980         -67.2266     -89.688     -116.317       26.629   268.2     -0.633     -0.165     -0.332   18.897   18.897   18.897
0.7990         -67.2261     -89.579     -116.125       26.546   267.4     -0.732     -0.380     -0.448   18.892   18.892   18.892
0.8000         -67.2290     -89.468     -116.017       26.549   267.4     -0.785     -0.629     -0.628   18.887   18.887   18.887
0.8010         -67.2321     -89.352     -115.883       26.531   267.3     -0.763     -0.813     -0.813   18.882   18.882   18.882
0.8020         -67.2291     -89.227     -115.621       26.394   265.9     -0.664     -0.861     -0.940   18.878   18.878   18.878
0.8030         -67.2254     -89.101     -115.403       26.302   264.9     -0.524     -0.768     -0.972   18.873   18.873   18.873
0.8040         -67.2251     -88.980     -115.406       26.425   266.2     -0.402     -0.575     -0.904   18.868   18.868   18.868
0.8050         -67.2251     -88.863     -115.591       26.728   269.2     -0.343     -0.356     -0.758   18.863   18.863   18.863
0.8060         -67.2265     -88.750     -115.857       27.107   273.1     -0.367     -0.201     -0.586   18.859   18.859   18.859
0.8070         -67.2278     -88.639     -116.074       27.436   276.4     -0.454     -0.175     -0.454   18.854   18.854   18.854
0.8080         -67.2268     -88.526     -116.113       27.587   277.9     -0.563     -0.282     -0.426   18.849   18.849   18.849
0.8090         -67.2258     -88.413     -115.970       27.557   277.6     -0.667     -0.478     -0.519   18.844   18.844   18.844
0.8100         -67.2255     -88.298     -115.698       27.400   276.0     -0.745     -0.691     -0.689   18.840   18.840   18.840
0.8110         -67.2220     -88.179     -115.412       27.233   274.3     -0.780     -0.848     -0.862   18.835   18.835   18.835
0.8120         -67.2224     -88.062     -115.319       27.257   274.6     -0.766     -0.913     -0.983   18.830   18.830   18.830
0.8130         -67.2284     -87.952     -115.358       27.406   276.1     -0.712     -0.882     -1.015   18.826   18.826   18.826
0.8140         -67.2266     -87.837     -115.210       27.372   275.7     -0.642     -0.770     -0.955   18.821   18.821   18.821
0.8150         -67.2175     -87.721     -114.923       27.203   274.0     -0.591     -0.622     -0.851   18.816   18.816   18.816
0.8160         -67.2168     -87.617     -114.887       27.270   274.7     -0.596     -0.504     -0.776   18.811   18.811   18.811
0.8170         -67.2229     -87.522     -115.106       27.584   277.9     -0.656     -0.459     -0.779   18.807   18.807   18.807
0.8180         -67.2250     -87.424     -115.202       27.777   279.8     -0.740     -0.491     -0.867   18.802   18.802   18.802
0.8190         -67.2202     -87.320     -115.057       27.737   279.4     -0.810     -0.590     -1.017   18.797   18.797   18.797
0.8200         -67.2177     -87.218     -114.870       27.652   278.5     -0.839     -0.728     -1.175   18.793   18.793   18.793
0.8210         -67.2173     -87.118     -114.788       27.669   278.7     -0.810     -0.850     -1.278   18.788   18.788   18.788
0.8220         -67.2203     -87.024     -114.806       27.782   279.9     -0.734     -0.908     -1.291   18.784   18.784   18.784
0.8230         -67.2222     -86.933     -114.701       27.768   279.7     -0.626     -0.887     -1.210   18.779   18.779   18.779
0.8240         -67.2133     -86.837     -114.368       27.531   277.3     -0.508     -0.803     -1.070   18.774   18.774   18.774
0.8250         -67.2066     -86.751     -114.239       27.488   276.9     -0.418     -0.704     -0.945   18.770   18.770   18.770
0.8260         -67.2132     -86.682     -114.608       27.926   281.3     -0.391     -0.633     -0.903   18.765   18.765   18.765
0.8270         -67.2198     -86.617     -115.041       28.425   286.3     -0.432     -0.599     -0.961   18.761   18.761   18.761
0.8280         -67.2164     -86.545     -115.081       28.536   287.5     -0.517     -0.598     -1.103   18.756   18.756   18.756
0.8290         -67.2088     -86.473     -114.837       28.365   285.7     -0.615     -0.633     -1.286   18.751   18.751   18.751
0.8300         -67.2047     -86.406     -114.674       28.268   284.8     -0.694     -0.693     -1.446   18.747   18.747   18.747
0.8310         -67.2082     -86.350     -114.786       28.436   286.5     -0.730     -0.748     -1.526   18.742   18.742   18.742
0.8320         -67.2146     -86.302     -114.899       28.598   288.1     -0.703     -0.774     -1.487   18.738   18.738   18.738
0.8330         -67.2067     -86.247     -114.612       28.365   285.7     -0.610     -0.766     -1.317   18.733   18.733   18.733
0.8340         -67.1935     -86.195     -114.272       28.077   282.8     -0.497     -0.757     -1.085   18.729   18.729   18.729
0.8350         -67.1980     -86.169     -114.458       28.288   285.0     -0.442     -0.787     -0.903   18.724   18.724   18.724
0.8360         -67.2078     -86.155     -114.860       28.705   289.2     -0.479     -0.856     -0.841   18.720   18.720   18.720
0.8370         -67.2050     -86.133     -114.866       28.733   289.4     -0.604     -0.932     -0.914   18.715   18.715   18.715
0.8380         -67.1974     -86.109     -114.535       28.427   286.4     -0.790     -0.990     -1.095   18.711   18.711   18.711
0.8390         -67.1942     -86.090     -114.290       28.199   284.1     -0.977     -1.013     -1.318   18.706   18.706   18.706
0.8400         -67.1962     -86.078     -114.314       28.236   284.4     -1.098     -0.991     -1.495   18.702   18.702   18.702
0.8410         -67.2004     -86.072     -114.450       28.378   285.9     -1.106     -0.929     -1.560   18.697   18.697   18.697
0.8420         -67.1986     -86.067     -114.399       28.332   285.4     -0.997     -0.846     -1.494   18.693   18.693   18.693
0.8430         -67.1919     -86.065     -114.155       28.090   283.0     -0.813     -0.773     -1.341   18.688   18.688   18.688
0.8440         -67.1880     -86.074     -113.997       27.923   281.3     -0.626     -0.736     -1.194   18.684   18.684   18.684
0.8450         -67.1883     -86.094     -114.074       27.979   281.8     -0.496     -0.749     -1.132   18.679   18.679   18.679
0.8460         -67.1899     -86.121     -114.323       28.202   284.1     -0.457     -0.806     -1.195   18.675   18.675   18.675
0.8470         -67.1917     -86.151     -114.609       28.458   286.7     -0.515     -0.890     -1.366   18.671   18.671   18.671
0.8480         -67.1918     -86.182     -114.778       28.596   288.1     -0.645     -0.973     -1.587   18.666   18.666   18.666
0.8490         -67.1890     -86.212     -114.768       28.555   287.6     -0.793     -1.016     -1.794   18.662   18.662   18.662
0.8500         -67.1855     -86.245     -114.663       28.418   286.3     -0.897     -1.005     -1.927   18.658   18.658   18.658
0.8510         -67.1849     -86.284     -114.590       28.305   285.1     -0.912     -0.958     -1.936   18.653   18.653   18.653
0.8520         -67.1857     -86.332     -114.551       28.219   284.3     -0.835     -0.913     -1.820   18.649   18.649   18.649
0.8530         -67.1861     -86.386     -114.405       28.019   282.2     -0.709     -0.894     -1.631   18.644   18.644   18.644
0.8540         -67.1823     -86.442     -114.065       27.623   278.3     -0.605     -0.917     -1.445   18.640   18.640   18.640
0.8550         -67.1763     -86.499     -113.689       27.189   273.9     -0.587     -0.985     -1.333   18.636   18.636   18.636
0.8560         -67.1739     -86.559     -113.615       27.056   272.5     -0.695     -1.086     -1.336   18.632   18.632   18.632
0.8570         -67.1809     -86.627     -113.972       27.345   275.5     -0.922     -1.191     -1.452   18.627   18.627   18.627
0.8580         -67.1891     -86.694     -114.374       27.680   278.8     -1.196     -1.263     -1.626   18.623   18.623   18.623
0.8590         -67.1859     -86.750     -114.393       27.643   278.5     -1.414     -1.288     -1.778   18.619   18.619   18.619
0.8600         -67.1787     -86.801     -114.174       27.373   275.7     -1.509     -1.288     -1.853   18.614   18.614   18.614
0.8610         -67.1795     -86.861     -114.133       27.272   274.7     -1.479     -1.284     -1.843   18.610   18.610   18.610
0.8620         -67.1852     -86.929     -114.228       27.299   275.0     -1.361     -1.278     -1.766   18.606   18.606   18.606
0.8630         -67.1833     -86.993     -114.138       27.145   273.4     -1.213     -1.273     -1.649   18.602   18.602   18.602
0.8640         -67.1781     -87.056     -113.900       26.844   270.4     -1.106     -1.279     -1.536   18.598   18.598   18.598
0.8650         -67.1758     -87.123     -113.792       26.669   268.6     -1.083     -1.294     -1.461   18.593   18.593   18.593
0.8660         -67.1763     -87.192     -113.933       26.741   269.4     -1.147     -1.292     -1.440   18.589   18.589   18.589
0.8670         -67.1800     -87.265     -114.279       27.014   272.1     -1.265     -1.255     -1.470   18.585   18.585   18.585
0.8680         -67.1849     -87.340     -114.651       27.311   275.1     -1.378     -1.176     -1.540   18.581   18.581   18.581
0.8690         -67.1843     -87.412     -114.784       27.372   275.7     -1.430     -1.074     -1.615   18.577   18.577   18.577
0.8700         -67.1792     -87.482     -114.708       27.226   274.3     -1.403     -1.000     -1.666   18.573   18.573   18.573
0.8710         -67.1795     -87.558     -114.701       27.143   273.4     -1.316     -1.018     -1.687   18.569   18.569   18.569
0.8720         -67.1838     -87.640     -114.758       27.118   273.2     -1.206     -1.136     -1.683   18.565   18.565   18.565
0.8730         -67.1830     -87.717     -114.641       26.925   271.2     -1.123     -1.301     -1.664   18.561   18.561   18.561
0.8740         -67.1788     -87.789     -114.333       26.544   267.4     -1.119     -1.452     -1.643   18.557   18.557   18.557
0.8750         -67.1771     -87.859     -114.042       26.183   263.8     -1.213     -1.550     -1.624   18.553   18.553   18.553
0.8760         -67.1771     -87.927     -113.954       26.027   262.2     -1.372     -1.585     -1.605   18.549   18.549   18.549
0.8770         -67.1802     -87.994     -114.103       26.109   263.0     -1.532     -1.575     -1.584   18.545   18.545   18.545
0.8780         -67.1842     -88.061     -114.338       26.278   264.7     -1.628     -1.561     -1.557   18.541   18.541   18.541
0.8790         -67.1852     -88.123     -114.456       26.333   265.3     -1.632     -1.584     -1.525   18.537   18.537   18.537
0.8800         -67.1831     -88.181     -114.438       26.257   264.5     -1.569     -1.656     -1.503   18.533   18.533   18.533
0.8810         -67.1816     -88.238     -114.426       26.188   263.8     -1.509     -1.757     -1.509   18.529   18.529   18.529
0.8820         -67.1846     -88.296     -114.503       26.206   264.0     -1.511     -1.840     -1.553   18.525   18.525   18.525
0.8830         -67.1859     -88.351     -114.578       26.227   264.2     -1.591     -1.863     -1.623   18.521   18.521   18.521
0.8840         -67.1846     -88.400     -114.581       26.181   263.7     -1.722     -1.815     -1.692   18.517   18.517   18.517
0.8850         -67.1826     -88.445     -114.640       26.195   263.9     -1.854     -1.731     -1.730   18.513   18.513   18.513
0.8860         -67.1857     -88.494     -114.874       26.380   265.7     -1.936     -1.652     -1.717   18.509   18.509   18.509
0.8870         -67.1890     -88.544     -115.167       26.623   268.2     -1.933     -1.589     -1.654   18.505   18.505   18.505
0.8880         -67.1868     -88.590     -115.385       26.795   269.9     -1.847     -1.540     -1.570   18.502   18.502   18.502
0.8890         -67.1867     -88.641     -115.602       26.961   271.6     -1.722     -1.503     -1.510   18.498   18.498   18.498
0.8900         -67.1906     -88.700     -115.805       27.105   273.0     -1.607     -1.472     -1.510   18.494   18.494   18.494
0.8910         -67.1890     -88.755     -115.809       27.055   272.5     -1.532     -1.432     -1.576   18.490   18.490   18.490
0.8920         -67.1849     -88.808     -115.698       26.891   270.9     -1.514     -1.396     -1.694   18.487   18.487   18.487
0.8930         -67.1868     -88.866     -115.671       26.806   270.0     -1.560     -1.384     -1.831   18.483   18.483   18.483
0.8940         -67.1894     -88.923     -115.626       26.703   269.0     -1.641     -1.398     -1.933   18.479   18.479   18.479
0.8950         -67.1855     -88.971     -115.445       26.473   266.7     -1.711     -1.443     -1.965   18.475   18.475   18.475
0.8960         -67.1831     -89.019     -115.339       26.320   265.1     -1.746     -1.533     -1.939   18.472   18.472   18.472
0.8970         -67.1863     -89.070     -115.459       26.389   265.8     -1.739     -1.664     -1.888   18.468   18.468   18.468
0.8980         -67.1886     -89.119     -115.658       26.539   267.3     -1.695     -1.800     -1.844   18.464   18.464   18.464
0.8990         -67.1892     -89.167     -115.803       26.636   268.3     -1.644     -1.910     -1.831   18.461   18.461   18.461
0.9000         -67.1889     -89.213     -115.850       26.637   268.3     -1.626     -1.970     -1.850   18.457   18.457   18.457
0.9010         -67.1859     -89.255     -115.833       26.578   267.7     -1.672     -1.961     -1.888   18.454   18.454   18.454
0.9020         -67.1867     -89.300     -115.897       26.597   267.9     -1.800     -1.884     -1.922   18.450   18.450   18.450
0.9030         -67.1900     -89.347     -116.001       26.654   268.5     -1.989     -1.767     -1.928   18.446   18.446   18.446
0.9040         -67.1907     -89.391     -115.912       26.521   267.2     -2.173     -1.658     -1.895   18.443   18.443   18.443
0.9050         -67.1878     -89.429     -115.617       26.188   263.8     -2.282     -1.610     -1.838   18.439   18.439   18.439
0.9060         -67.1851     -89.465     -115.347       25.882   260.7     -2.280     -1.648     -1.781   18.436   18.436   18.436
0.9070         -67.1864     -89.501     -115.271       25.770   259.6     -2.184     -1.751     -1.742   18.432   18.432   18.432
0.9080         -67.1883     -89.536     -115.386       25.850   260.4     -2.041     -1.874     -1.724   18.429   18.429   18.429
0.9090         -67.1911     -89.570     -115.579       26.009   262.0     -1.916     -1.977     -1.724   18.426   18.426   18.426
0.9100         -67.1919     -89.600     -115.737       26.137   263.3     -1.860     -2.027     -1.749   18.422   18.422   18.422
0.9110         -67.1931     -89.629     -115.849       26.220   264.1     -1.898     -2.009     -1.814   18.419   18.419   18.419
0.9120         -67.1957     -89.657     -115.874       26.218   264.1     -2.016     -1.931     -1.922   18.415   18.415   18.415
0.9130         -67.1937     -89.677     -115.730       26.053   262.4     -2.167     -1.831     -2.056   18.412   18.412   18.412
0.9140         -67.1899     -89.692     -115.574       25.882   260.7     -2.297     -1.776     -2.197   18.409   18.409   18.409
0.9150         -67.1930     -89.709     -115.628       25.918   261.1     -2.366     -1.820     -2.321   18.405   18.405   18.405
0.9160         -67.1979     -89.725     -115.763       26.038   262.3     -2.359     -1.954     -2.390   18.402   18.402   18.402
0.9170         -67.1973     -89.732     -115.732       26.000   261.9     -2.279     -2.128     -2.380   18.399   18.399   18.399
0.9180         -67.1956     -89.736     -115.532       25.796   259.9     -2.152     -2.285     -2.307   18.395   18.395   18.395
0.9190         -67.1929     -89.736     -115.313       25.577   257.6     -2.010     -2.359     -2.208   18.392   18.392   18.392
0.9200         -67.1909     -89.735     -115.303       25.568   257.6     -1.892     -2.305     -2.112   18.389   18.389   18.389
0.9210         -67.1958     -89.739     -115.663       25.924   261.1     -1.839     -2.135     -2.042   18.386   18.386   18.386
0.9220         -67.2056     -89.749     -116.112       26.362   265.6     -1.858     -1.910     -2.002   18.383   18.383   18.383
0.9230         -67.2051     -89.750     -116.126       26.376   265.7     -1.926     -1.703     -1.980   18.380   18.380   18.380
0.9240         -67.1941     -89.739     -115.749       26.009   262.0     -2.013     -1.587     -1.982   18.376   18.376   18.376
0.9250         -67.1897     -89.732     -115.590       25.858   260.5     -2.100     -1.616     -2.022   18.373   18.373   18.373
0.9260         -67.1983     -89.734     -115.914       26.180   263.7     -2.165     -1.788     -2.089   18.370   18.370   18.370
0.9270         -67.2088     -89.735     -116.252       26.518   267.1     -2.185     -2.039     -2.146   18.367   18.367   18.367
0.9280         -67.2078     -89.722     -116.023       26.301   264.9     -2.150     -2.280     -2.170   18.364   18.364   18.364
0.9290         -67.1968     -89.696     -115.280       25.584   257.7     -2.083     -2.433     -2.167   18.361   18.361   18.361
0.9300         -66.7407     -89.220     -114.234       25.014   252.0     -2.181     -2.620     -2.319   18.358   18.358   18.358
0.9310         -66.7474     -89.199     -114.243       25.044   252.3     -2.179     -2.541     -2.364   18.355   18.355   18.355
0.9320         -66.7596     -89.179     -114.535       25.356   255.4     -2.233     -2.390     -2.443   18.352   18.352   18.352
0.9330         -66.7599     -89.144     -114.478       25.334   255.2     -2.322     -2.228     -2.524   18.349   18.349   18.349
0.9340         -66.7509     -89.095     -114.058       24.963   251.5     -2.418     -2.131     -2.584   18.346   18.346   18.346
0.9350         -66.7466     -89.045     -113.833       24.788   249.7     -2.500     -2.155     -2.618   18.343   18.343   18.343
0.9360         -66.7530     -88.999     -114.113       25.115   253.0     -2.546     -2.302     -2.627   18.341   18.341   18.341
0.9370         -66.7620     -88.950     -114.607       25.657   258.5     -2.540     -2.511     -2.611   18.338   18.338   18.338
0.9380         -66.7645     -88.891     -114.851       25.960   261.5     -2.487     -2.697     -2.572   18.335   18.335   18.335
0.9390         -66.7597     -88.822     -114.746       25.924   261.1     -2.408     -2.782     -2.523   18.332   18.332   18.332
0.9400         -66.2288     -88.223     -114.077       25.855   260.4     -2.500     -2.907     -2.656   18.329   18.329   18.329
0.9410         -66.2331     -88.157     -114.197       26.040   262.3     -2.463     -2.785     -2.643   18.327   18.327   18.327
0.9420         -66.2399     -88.094     -114.399       26.305   265.0     -2.459     -2.633     -2.632   18.324   18.324   18.324
0.9430         -66.2384     -88.021     -114.341       26.319   265.1     -2.467     -2.507     -2.608   18.321   18.321   18.321
0.9440         -66.2308     -87.943     -114.114       26.171   263.6     -2.474     -2.459     -2.580   18.319   18.319   18.319
0.9450         -66.2288     -87.868     -114.124       26.256   264.5     -2.479     -2.512     -2.579   18.316   18.316   18.316
0.9460         -66.2345     -87.800     -114.486       26.687   268.8     -2.478     -2.643     -2.620   18.313   18.313   18.313
0.9470         -66.2401     -87.730     -114.850       27.120   273.2     -2.469     -2.791     -2.686   18.311   18.311   18.311
0.9480         -66.2380     -87.653     -114.863       27.210   274.1     -2.457     -2.892     -2.736   18.308   18.308   18.308
0.9490         -66.2316     -87.573     -114.593       27.020   272.2     -2.447     -2.912     -2.744   18.306   18.306   18.306
0.9500         -66.2288     -87.498     -114.360       26.862   270.6     -2.441     -2.849     -2.707   18.303   18.303   18.303
0.9510         -66.2536     -87.453     -114.340       26.888   270.8     -2.400     -2.684     -2.608   18.301   18.301   18.301
0.9520         -66.2551     -87.387     -114.394       27.007   272.1     -2.376     -2.492     -2.531   18.298   18.298   18.298
0.9530         -66.2554     -87.322     -114.399       27.077   272.8     -2.337     -2.287     -2.487   18.296   18.296   18.296
0.9540         -66.2546     -87.258     -114.285       27.026   272.2     -2.291     -2.130     -2.504   18.294   18.294   18.294
0.9550         -66.2522     -87.195     -114.074       26.878   270.8     -2.258     -2.080     -2.586   18.291   18.291   18.291
0.9560         -66.2501     -87.132     -113.874       26.742   269.4     -2.268     -2.171     -2.713   18.289   18.289   18.289
0.9570         -66.2494     -87.070     -113.787       26.717   269.1     -2.342     -2.397     -2.844   18.287   18.287   18.287
0.9580         -66.2527     -87.009     -113.783       26.774   269.7     -2.480     -2.691     -2.941   18.284   18.284   18.284
0.9590         -66.2544     -86.945     -113.688       26.743   269.4     -2.652     -2.958     -2.986   18.282   18.282   18.282
0.9600         -66.2528     -86.875     -113.388       26.512   267.1     -2.816     -3.122     -2.987   18.280   18.280   18.280
0.9610         -66.2496     -86.803     -112.973       26.170   263.6     -2.937     -3.155     -2.954   18.278   18.278   18.278
0.9620         -66.2471     -86.730     -112.652       25.921   261.1     -2.998     -3.071     -2.897   18.275   18.275   18.275
0.9630         -66.2477     -86.660     -112.584       25.925   261.1     -3.005     -2.910     -2.831   18.273   18.273   18.273
0.9640         -66.2515     -86.591     -112.748       26.157   263.5     -2.970     -2.727     -2.782   18.271   18.271   18.271
0.9650         -66.2531     -86.520     -112.952       26.432   266.3     -2.903     -2.573     -2.772   18.269   18.269   18.269
0.9660         -66.2500     -86.444     -113.097       26.653   268.5     -2.809     -2.482     -2.810   18.267   18.267   18.267
0.9670         -66.2462     -86.368     -113.343       26.975   271.7     -2.708     -2.480     -2.888   18.265   18.265   18.265
0.9680         -66.2505     -86.301     -113.823       27.523   277.2     -2.629     -2.563     -2.980   18.263   18.263   18.263
0.9690         -66.2575     -86.238     -114.244       28.006   282.1     -2.590     -2.685     -3.048   18.261   18.261   18.261
0.9700         -66.2563     -86.171     -114.150       27.979   281.8     -2.599     -2.778     -3.069   18.259   18.259   18.259
0.9710         -66.2473     -86.101     -113.553       27.453   276.5     -2.647     -2.798     -3.054   18.257   18.257   18.257
0.9720         -66.2395     -86.034     -112.931       26.897   270.9     -2.715     -2.738     -3.041   18.255   18.255   18.255
0.9730         -66.2382     -85.975     -112.710       26.735   269.3     -2.779     -2.617     -3.049   18.253   18.253   18.253
0.9740         -66.2436     -85.923     -112.920       26.997   271.9     -2.814     -2.472     -3.083   18.251   18.251   18.251
0.9750         -66.2493     -85.874     -113.227       27.353   275.5     -2.799     -2.348     -3.134   18.250   18.250   18.250
0.9760         -66.2487     -85.820     -113.291       27.471   276.7     -2.738     -2.283     -3.176   18.248   18.248   18.248
0.9770         -66.2443     -85.766     -113.085       27.319   275.2     -2.663     -2.297     -3.188   18.246   18.246   18.246
0.9780         -66.2396     -85.714     -112.842       27.128   273.3     -2.615     -2.381     -3.163   18.244   18.244   18.244
0.9790         -66.2397     -85.668     -112.791       27.123   273.2     -2.620     -2.497     -3.108   18.243   18.243   18.243
0.9800         -66.2448     -85.628     -112.888       27.260   274.6     -2.676     -2.608     -3.030   18.241   18.241   18.241
0.9810         -66.2486     -85.589     -112.799       27.209   274.1     -2.748     -2.687     -2.943   18.239   18.239   18.239
0.9820         -66.2438     -85.543     -112.262       26.719   269.2     -2.803     -2.723     -2.870   18.238   18.238   18.238
0.9830         -66.2344     -85.493     -111.513       26.021   262.1     -2.840     -2.730     -2.849   18.236   18.236   18.236
0.9840         -66.2316     -85.447     -111.086       25.640   258.3     -2.866     -2.743     -2.901   18.234   18.234   18.234
0.9850         -66.2377     -85.406     -111.200       25.794   259.8     -2.876     -2.776     -3.012   18.233   18.233   18.233
0.9860         -66.2459     -85.365     -111.537       26.172   263.6     -2.861     -2.813     -3.130   18.231   18.231   18.231
0.9870         -66.2467     -85.314     -111.634       26.319   265.1     -2.819     -2.826     -3.198   18.230   18.230   18.230
0.9880         -66.2397     -85.255     -111.452       26.197   263.9     -2.761     -2.802     -3.185   18.228   18.228   18.228
0.9890         -66.2373     -85.200     -111.368       26.168   263.6     -2.711     -2.744     -3.103   18.227   18.227   18.227
0.9900         -66.2444     -85.153     -111.534       26.381   265.7     -2.686     -2.662     -2.980   18.225   18.225   18.225
0.9910         -66.2492     -85.104     -111.632       26.528   267.2     -2.689     -2.564     -2.852   18.224   18.224   18.224
0.9920         -66.2461     -85.048     -111.398       26.351   265.4     -2.723     -2.475     -2.757   18.223   18.223   18.223
0.9930         -66.2392     -84.987     -111.033       26.047   262.4     -2.786     -2.449     -2.736   18.221   18.221   18.221
0.9940         -66.2371     -84.928     -110.955       26.026   262.2     -2.860     -2.537     -2.816   18.220   18.220   18.220
0.9950         -66.2444     -84.877     -111.275       26.399   265.9     -2.920     -2.750     -2.989   18.219   18.219   18.219
0.9960         -66.2516     -84.823     -111.580       26.757   269.5     -2.943     -3.031     -3.212   18.218   18.218   18.218
0.9970         -66.2456     -84.755     -111.451       26.696   268.9     -2.911     -3.278     -3.419   18.216   18.216   18.216
0.9980         -66.2339     -84.680     -111.178       26.498   266.9     -2.845     -3.406     -3.573   18.215   18.215   18.215
0.9990         -66.2357     -84.619     -111.349       26.730   269.3     -2.791     -3.376     -3.666   18.214   18.214   18.214
1.0000         -66.2472     -84.569     -111.852       27.284   274.8     -2.779     -3.189     -3.686   18.213   18.213   18.213
1.0010         -66.2494     -84.511     -112.039       27.528   277.3     -2.808     -2.909     -3.605   18.212   18.212   18.212
1.0020         -66.2395     -84.445     -111.765       27.320   275.2     -2.876     -2.656     -3.427   18.211   18.211   18.211
1.0030         -66.2340     -84.387     -111.548       27.161   273.6     -2.983     -2.549     -3.201   18.210   18.210   18.210
1.0040         -66.2395     -84.342     -111.690       27.349   275.5     -3.104     -2.623     -2.992   18.209   18.209   18.209
1.0050         -66.2449     -84.299     -111.878       27.580   277.8     -3.195     -2.817     -2.851   18.208   18.208   18.208
1.0060         -66.2415     -84.249     -111.758       27.508   277.1     -3.211     -3.033     -2.806   18.207   18.207   18.207
1.0070         -66.2340     -84.199     -111.454       27.255   274.5     -3.133     -3.194     -2.855   18.206   18.206   18.206
1.0080         -66.2327     -84.156     -111.325       27.168   273.7     -2.970     -3.251     -2.963   18.205   18.205   18.205
1.0090         -66.0706     -83.955     -111.284       27.329   275.3     -2.748     -3.162     -3.072   18.204   18.204   18.204
1.0100         -66.0750     -83.924     -111.418       27.495   277.0     -2.579     -2.997     -3.180   18.203   18.203   18.203
1.0110         -66.0741     -83.890     -111.293       27.403   276.0     -2.511     -2.790     -3.258   18.203   18.203   18.203
1.0120         -66.0676     -83.853     -110.941       27.088   272.9     -2.574     -2.616     -3.298   18.202   18.202   18.202
1.0130         -66.0615     -83.818     -110.739       26.921   271.2     -2.766     -2.546     -3.304   18.201   18.201   18.201
1.0140         -66.0662     -83.795     -110.967       27.172   273.7     -3.052     -2.616     -3.292   18.200   18.200   18.200
1.0150         -66.0749     -83.777     -111.336       27.560   277.6     -3.350     -2.797     -3.272   18.200   18.200   18.200
1.0160         -66.0742     -83.752     -111.323       27.571   277.7     -3.557     -3.004     -3.249   18.199   18.199   18.199
1.0170         -66.0654     -83.722     -110.896       27.174   273.7     -3.598     -3.152     -3.237   18.198   18.198   18.198
1.0180         -66.0606     -83.697     -110.492       26.795   269.9     -3.465     -3.192     -3.256   18.198   18.198   18.198
